SpectraSuite Data File
++++++++++++++++++++++++++++++++++++
Date: Sun Dec 15 16:08:15 CET 2019
User: fiberoptics
Dark Spectrum Present: No
Reference Spectrum Present: No
Number of Sampled Component Spectra: 1
Spectrometers: QEPB0198
Integration Time (usec): 100000 (QEPB0198)
Spectra Averaged: 1 (QEPB0198)
Boxcar Smoothing: 0 (QEPB0198)
Correct for Electrical Dark: No (QEPB0198)
Strobe/Lamp Enabled: No (QEPB0198)
Correct for Detector Non-linearity: No (QEPB0198)
Correct for Stray Light: No (QEPB0198)
Number of Pixels in Processed Spectrum: 1044
>>>>>Begin Processed Spectral Data<<<<<
348.19	2562.00
348.97	2559.00
349.76	2559.00
350.55	2558.00
351.34	2553.00
352.12	2562.00
352.91	2564.00
353.70	2561.00
354.48	2558.00
355.27	2560.00
356.06	2569.00
356.84	2563.00
357.63	2569.00
358.42	2569.00
359.20	2582.00
359.99	2594.00
360.77	2612.00
361.56	2649.00
362.35	2674.00
363.13	2690.00
363.92	2692.00
364.70	2696.00
365.49	2689.00
366.28	2683.00
367.06	2671.00
367.85	2647.00
368.63	2606.00
369.42	2596.00
370.20	2597.00
370.99	2589.00
371.77	2590.00
372.56	2593.00
373.35	2597.00
374.13	2608.00
374.92	2599.00
375.70	2613.00
376.49	2616.00
377.27	2615.00
378.06	2627.00
378.84	2635.00
379.62	2640.00
380.41	2641.00
381.19	2646.00
381.98	2661.00
382.76	2658.00
383.55	2669.00
384.33	2672.00
385.12	2689.00
385.90	2703.00
386.68	2718.00
387.47	2725.00
388.25	2737.00
389.04	2751.00
389.82	2774.00
390.60	2774.00
391.39	2790.00
392.17	2804.00
392.95	2828.00
393.74	2845.00
394.52	2866.00
395.30	2897.00
396.09	2907.00
396.87	2948.00
397.65	2981.00
398.44	3013.00
399.22	3097.00
400.00	3317.00
400.79	3766.00
401.57	4109.00
402.35	4271.00
403.13	4388.00
403.92	4522.00
404.70	4599.00
405.48	4613.00
406.26	4628.00
407.05	4543.00
407.83	4371.00
408.61	4305.00
409.39	4455.00
410.18	4658.00
410.96	4858.00
411.74	5129.00
412.52	5434.00
413.30	5785.00
414.08	6153.00
414.87	6558.00
415.65	7061.00
416.43	7562.00
417.21	8091.00
417.99	8684.00
418.77	9345.00
419.56	10013.00
420.34	10756.00
421.12	11568.00
421.90	12430.00
422.68	13286.00
423.46	14243.00
424.24	15251.00
425.02	16240.00
425.80	17357.00
426.58	18484.00
427.36	19610.00
428.14	20837.00
428.93	21988.00
429.71	23222.00
430.49	24638.00
431.27	26728.00
432.05	29824.00
432.83	32158.00
433.61	33581.00
434.39	34931.00
435.17	36154.00
435.95	37151.00
436.73	37966.00
437.51	38645.00
438.29	38882.00
439.07	38500.00
439.85	38895.00
440.62	39916.00
441.40	41067.00
442.18	42066.00
442.96	43200.00
443.74	44107.00
444.52	45007.00
445.30	45800.00
446.08	46423.00
446.86	46854.00
447.64	47190.00
448.42	47215.00
449.19	47037.00
449.97	46655.00
450.75	46057.00
451.53	45181.00
452.31	44241.00
453.09	43021.00
453.87	41657.00
454.64	40328.00
455.42	38674.00
456.20	37222.00
456.98	35704.00
457.76	34119.00
458.53	32784.00
459.31	31248.00
460.09	30016.00
460.87	28759.00
461.65	27567.00
462.42	26581.00
463.20	25590.00
463.98	24693.00
464.76	23828.00
465.53	23085.00
466.31	22329.00
467.09	21573.00
467.86	21001.00
468.64	20297.00
469.42	19734.00
470.20	19185.00
470.97	18680.00
471.75	18140.00
472.53	17696.00
473.30	17216.00
474.08	16844.00
474.86	16530.00
475.63	16193.00
476.41	15887.00
477.18	15688.00
477.96	15426.00
478.74	15242.00
479.51	15133.00
480.29	15019.00
481.07	14977.00
481.84	14971.00
482.62	14976.00
483.39	14992.00
484.17	15082.00
484.94	15106.00
485.72	15249.00
486.50	15430.00
487.27	15581.00
488.05	15751.00
488.82	15989.00
489.60	16237.00
490.37	16492.00
491.15	16768.00
491.92	17109.00
492.70	17451.00
493.47	17871.00
494.25	18219.00
495.02	18670.00
495.80	19103.00
496.57	19631.00
497.35	20067.00
498.12	20645.00
498.89	21235.00
499.67	21790.00
500.44	22437.00
501.22	23078.00
501.99	23656.00
502.77	24347.00
503.54	25021.00
504.31	25762.00
505.09	26511.00
505.86	27148.00
506.63	27876.00
507.41	28637.00
508.18	29290.00
508.96	30049.00
509.73	30756.00
510.50	31536.00
511.28	32198.00
512.05	33041.00
512.82	33682.00
513.59	34356.00
514.37	35165.00
515.14	35816.00
515.91	36472.00
516.69	37153.00
517.46	37806.00
518.23	38481.00
519.00	39052.00
519.78	39753.00
520.55	40389.00
521.32	41032.00
522.09	41635.00
522.87	42269.00
523.64	42794.00
524.41	43423.00
525.18	44006.00
525.95	44552.00
526.73	45099.00
527.50	45711.00
528.27	46163.00
529.04	46640.00
529.81	47185.00
530.59	47688.00
531.36	48133.00
532.13	48578.00
532.90	49122.00
533.67	49589.00
534.44	50078.00
535.21	50518.00
535.98	50957.00
536.76	51406.00
537.53	51878.00
538.30	52382.00
539.07	52723.00
539.84	53218.00
540.61	53815.00
541.38	54946.00
542.15	57925.00
542.92	59964.00
543.69	60630.00
544.46	61138.00
545.23	61446.00
546.00	61623.00
546.77	61595.00
547.54	61385.00
548.31	60552.00
549.08	58658.00
549.85	57505.00
550.62	57590.00
551.39	57732.00
552.16	57972.00
552.93	58210.00
553.70	58386.00
554.47	58729.00
555.24	58962.00
556.01	59216.00
556.78	59381.00
557.55	59594.00
558.32	59684.00
559.09	59975.00
559.85	59977.00
560.62	60206.00
561.39	60347.00
562.16	60468.00
562.93	60704.00
563.70	60869.00
564.47	60974.00
565.23	61027.00
566.00	61203.00
566.77	61339.00
567.54	61456.00
568.31	61623.00
569.08	61609.00
569.84	61694.00
570.61	61803.00
571.38	61806.00
572.15	61963.00
572.92	62400.00
573.68	62767.00
574.45	63082.00
575.22	63530.00
575.99	63815.00
576.75	63773.00
577.52	63648.00
578.29	63575.00
579.05	63390.00
579.82	62981.00
580.59	62591.00
581.36	62193.00
582.12	61656.00
582.89	61342.00
583.66	61209.00
584.42	61033.00
585.19	60881.00
585.96	60563.00
586.72	60416.00
587.49	60186.00
588.26	59891.00
589.02	59646.00
589.79	59379.00
590.55	59032.00
591.32	58834.00
592.09	58527.00
592.85	58131.00
593.62	57828.00
594.38	57617.00
595.15	57146.00
595.91	56838.00
596.68	56489.00
597.45	56124.00
598.21	55827.00
598.98	55370.00
599.74	55034.00
600.51	54664.00
601.27	54275.00
602.04	54032.00
602.80	53443.00
603.57	53144.00
604.33	52788.00
605.10	52395.00
605.86	51934.00
606.63	51675.00
607.39	51491.00
608.15	51109.00
608.92	50833.00
609.68	50591.00
610.45	50214.00
611.21	49758.00
611.98	49245.00
612.74	48887.00
613.50	48273.00
614.27	47718.00
615.03	47233.00
615.80	46574.00
616.56	46090.00
617.32	45564.00
618.09	45071.00
618.85	44617.00
619.61	44107.00
620.38	43570.00
621.14	43142.00
621.90	42661.00
622.67	42152.00
623.43	41701.00
624.19	41190.00
624.96	40809.00
625.72	40276.00
626.48	39756.00
627.24	39229.00
628.01	38765.00
628.77	38324.00
629.53	37843.00
630.29	37344.00
631.06	36858.00
631.82	36519.00
632.58	36032.00
633.34	35496.00
634.10	35070.00
634.87	34718.00
635.63	34175.00
636.39	33764.00
637.15	33330.00
637.91	32851.00
638.68	32446.00
639.44	32012.00
640.20	31538.00
640.96	31131.00
641.72	30715.00
642.48	30351.00
643.24	29851.00
644.00	29464.00
644.77	29077.00
645.53	28586.00
646.29	28195.00
647.05	27831.00
647.81	27377.00
648.57	27012.00
649.33	26586.00
650.09	26182.00
650.85	25812.00
651.61	25432.00
652.37	25065.00
653.13	24689.00
653.89	24260.00
654.65	23851.00
655.41	23477.00
656.17	23059.00
656.93	22725.00
657.69	22360.00
658.45	21990.00
659.21	21647.00
659.97	21187.00
660.73	20856.00
661.49	20495.00
662.25	20074.00
663.01	19704.00
663.77	19361.00
664.53	19063.00
665.29	18693.00
666.05	18355.00
666.80	18020.00
667.56	17654.00
668.32	17297.00
669.08	16968.00
669.84	16697.00
670.60	16383.00
671.36	16053.00
672.11	15798.00
672.87	15567.00
673.63	15215.00
674.39	14947.00
675.15	14755.00
675.91	14489.00
676.66	14284.00
677.42	14061.00
678.18	13885.00
678.94	13647.00
679.69	13476.00
680.45	13327.00
681.21	13120.00
681.97	13005.00
682.73	12783.00
683.48	12682.00
684.24	12519.00
685.00	12327.00
685.75	12161.00
686.51	12031.00
687.27	11846.00
688.02	11735.00
688.78	11595.00
689.54	11477.00
690.30	11307.00
691.05	11144.00
691.81	11018.00
692.56	10846.00
693.32	10701.00
694.08	10545.00
694.83	10394.00
695.59	10220.00
696.35	10100.00
697.10	9949.00
697.86	9818.00
698.61	9678.00
699.37	9534.00
700.13	9422.00
700.88	9290.00
701.64	9149.00
702.39	9013.00
703.15	8873.00
703.90	8769.00
704.66	8678.00
705.41	8537.00
706.17	8422.00
706.92	8336.00
707.68	8207.00
708.43	8084.00
709.19	7966.00
709.94	7854.00
710.70	7742.00
711.45	7633.00
712.21	7506.00
712.96	7372.00
713.72	7288.00
714.47	7211.00
715.22	7078.00
715.98	6945.00
716.73	6848.00
717.49	6703.00
718.24	6626.00
718.99	6544.00
719.75	6428.00
720.50	6365.00
721.26	6248.00
722.01	6167.00
722.76	6091.00
723.52	6025.00
724.27	5925.00
725.02	5887.00
725.78	5809.00
726.53	5719.00
727.28	5688.00
728.03	5607.00
728.79	5535.00
729.54	5491.00
730.29	5441.00
731.05	5375.00
731.80	5291.00
732.55	5261.00
733.30	5221.00
734.06	5156.00
734.81	5091.00
735.56	5060.00
736.31	4989.00
737.06	4965.00
737.82	4934.00
738.57	4857.00
739.32	4822.00
740.07	4770.00
740.82	4723.00
741.58	4692.00
742.33	4651.00
743.08	4610.00
743.83	4565.00
744.58	4529.00
745.33	4491.00
746.08	4455.00
746.84	4432.00
747.59	4412.00
748.34	4354.00
749.09	4323.00
749.84	4298.00
750.59	4264.00
751.34	4218.00
752.09	4181.00
752.84	4138.00
753.59	4106.00
754.34	4084.00
755.09	4054.00
755.84	4014.00
756.59	3989.00
757.34	3948.00
758.09	3937.00
758.84	3921.00
759.59	3907.00
760.34	3879.00
761.09	3865.00
761.84	3833.00
762.59	3809.00
763.34	3777.00
764.09	3765.00
764.84	3723.00
765.59	3697.00
766.34	3684.00
767.09	3658.00
767.84	3622.00
768.58	3599.00
769.33	3605.00
770.08	3562.00
770.83	3545.00
771.58	3536.00
772.33	3522.00
773.08	3484.00
773.83	3473.00
774.57	3439.00
775.32	3437.00
776.07	3405.00
776.82	3386.00
777.57	3356.00
778.31	3340.00
779.06	3325.00
779.81	3306.00
780.56	3290.00
781.31	3277.00
782.05	3272.00
782.80	3247.00
783.55	3224.00
784.30	3225.00
785.04	3200.00
785.79	3179.00
786.54	3174.00
787.28	3163.00
788.03	3142.00
788.78	3134.00
789.52	3122.00
790.27	3108.00
791.02	3107.00
791.76	3099.00
792.51	3088.00
793.26	3070.00
794.00	3069.00
794.75	3055.00
795.50	3030.00
796.24	3038.00
796.99	3036.00
797.73	3005.00
798.48	3010.00
799.23	3003.00
799.97	2985.00
800.72	2979.00
801.46	2966.00
802.21	2962.00
802.95	2945.00
803.70	2946.00
804.45	2928.00
805.19	2919.00
805.94	2909.00
806.68	2925.00
807.43	2932.00
808.17	2929.00
808.92	2932.00
809.66	2925.00
810.40	2921.00
811.15	2907.00
811.89	2897.00
812.64	2898.00
813.38	2875.00
814.13	2851.00
814.87	2841.00
815.62	2828.00
816.36	2817.00
817.10	2811.00
817.85	2806.00
818.59	2800.00
819.34	2793.00
820.08	2794.00
820.82	2784.00
821.57	2775.00
822.31	2770.00
823.05	2778.00
823.80	2772.00
824.54	2764.00
825.28	2765.00
826.03	2758.00
826.77	2764.00
827.51	2742.00
828.25	2745.00
829.00	2738.00
829.74	2736.00
830.48	2723.00
831.23	2720.00
831.97	2720.00
832.71	2710.00
833.45	2710.00
834.19	2706.00
834.94	2703.00
835.68	2696.00
836.42	2712.00
837.16	2707.00
837.90	2706.00
838.65	2714.00
839.39	2712.00
840.13	2714.00
840.87	2707.00
841.61	2704.00
842.35	2702.00
843.10	2690.00
843.84	2690.00
844.58	2686.00
845.32	2680.00
846.06	2661.00
846.80	2668.00
847.54	2656.00
848.28	2660.00
849.02	2659.00
849.76	2649.00
850.50	2654.00
851.24	2653.00
851.99	2646.00
852.73	2649.00
853.47	2645.00
854.21	2643.00
854.95	2636.00
855.69	2640.00
856.43	2631.00
857.17	2629.00
857.91	2630.00
858.64	2624.00
859.38	2620.00
860.12	2623.00
860.86	2624.00
861.60	2622.00
862.34	2612.00
863.08	2604.00
863.82	2614.00
864.56	2611.00
865.30	2619.00
866.04	2612.00
866.78	2605.00
867.52	2599.00
868.25	2609.00
868.99	2597.00
869.73	2604.00
870.47	2600.00
871.21	2599.00
871.95	2590.00
872.68	2608.00
873.42	2596.00
874.16	2590.00
874.90	2594.00
875.64	2590.00
876.37	2595.00
877.11	2589.00
877.85	2584.00
878.59	2590.00
879.32	2585.00
880.06	2587.00
880.80	2589.00
881.54	2581.00
882.27	2580.00
883.01	2579.00
883.75	2588.00
884.48	2577.00
885.22	2584.00
885.96	2582.00
886.70	2575.00
887.43	2580.00
888.17	2574.00
888.90	2566.00
889.64	2575.00
890.38	2578.00
891.11	2578.00
891.85	2578.00
892.59	2575.00
893.32	2579.00
894.06	2569.00
894.79	2575.00
895.53	2572.00
896.27	2573.00
897.00	2570.00
897.74	2566.00
898.47	2576.00
899.21	2575.00
899.94	2564.00
900.68	2573.00
901.41	2566.00
902.15	2572.00
902.88	2565.00
903.62	2556.00
904.35	2561.00
905.09	2587.00
905.82	2569.00
906.56	2568.00
907.29	2569.00
908.03	2565.00
908.76	2568.00
909.49	2577.00
910.23	2572.00
910.96	2574.00
911.70	2579.00
912.43	2572.00
913.16	2572.00
913.90	2568.00
914.63	2570.00
915.37	2563.00
916.10	2561.00
916.83	2565.00
917.57	2559.00
918.30	2555.00
919.03	2558.00
919.77	2568.00
920.50	2561.00
921.23	2563.00
921.97	2559.00
922.70	2563.00
923.43	2563.00
924.16	2561.00
924.90	2554.00
925.63	2556.00
926.36	2558.00
927.09	2561.00
927.83	2553.00
928.56	2560.00
929.29	2555.00
930.02	2566.00
930.75	2558.00
931.49	2565.00
932.22	2557.00
932.95	2563.00
933.68	2550.00
934.41	2551.00
935.14	2548.00
935.88	2552.00
936.61	2558.00
937.34	2549.00
938.07	2555.00
938.80	2551.00
939.53	2548.00
940.26	2552.00
940.99	2556.00
941.72	2556.00
942.46	2551.00
943.19	2552.00
943.92	2546.00
944.65	2542.00
945.38	2547.00
946.11	2545.00
946.84	2553.00
947.57	2550.00
948.30	2550.00
949.03	2549.00
949.76	2547.00
950.49	2551.00
951.22	2549.00
951.95	2552.00
952.68	2552.00
953.41	2550.00
954.14	2551.00
954.86	2548.00
955.59	2548.00
956.32	2549.00
957.05	2544.00
957.78	2553.00
958.51	2554.00
959.24	2552.00
959.97	2548.00
960.70	2547.00
961.43	2548.00
962.15	2548.00
962.88	2549.00
963.61	2544.00
964.34	2547.00
965.07	2551.00
965.80	2550.00
966.52	2548.00
967.25	2545.00
967.98	2545.00
968.71	2544.00
969.43	2546.00
970.16	2538.00
970.89	2542.00
971.62	2541.00
972.34	2538.00
973.07	2540.00
973.80	2542.00
974.53	2545.00
975.25	2544.00
975.98	2542.00
976.71	2545.00
977.43	2536.00
978.16	2537.00
978.89	2537.00
979.61	2535.00
980.34	2539.00
981.07	2545.00
981.79	2536.00
982.52	2544.00
983.25	2538.00
983.97	2538.00
984.70	2536.00
985.42	2541.00
986.15	2532.00
986.88	2540.00
987.60	2537.00
988.33	2539.00
989.05	2531.00
989.78	2538.00
990.50	2537.00
991.23	2543.00
991.95	2547.00
992.68	2542.00
993.40	2544.00
994.13	2548.00
994.85	2541.00
995.58	2545.00
996.30	2536.00
997.03	2540.00
997.75	2546.00
998.48	2546.00
999.20	2552.00
999.93	2545.00
1000.65	2549.00
1001.38	2547.00
1002.10	2543.00
1002.82	2547.00
1003.55	2551.00
1004.27	2552.00
1004.99	2558.00
1005.72	2563.00
1006.44	2562.00
1007.17	2571.00
1007.89	2580.00
1008.61	2602.00
1009.34	2646.00
1010.06	2734.00
1010.78	2781.00
1011.51	2811.00
1012.23	2821.00
1012.95	2813.00
1013.67	2810.00
1014.40	2808.00
1015.12	2779.00
1015.84	2752.00
1016.56	2692.00
1017.29	2635.00
1018.01	2603.00
1018.73	2584.00
1019.45	2572.00
1020.18	2560.00
1020.90	2568.00
1021.62	2551.00
1022.34	2554.00
1023.06	2555.00
1023.78	2565.00
1024.51	2545.00
1025.23	2543.00
1025.95	2548.00
1026.67	2548.00
1027.39	2545.00
1028.11	2546.00
1028.83	2545.00
1029.55	2539.00
1030.28	2545.00
1031.00	2541.00
1031.72	2550.00
1032.44	2543.00
1033.16	2538.00
1033.88	2543.00
1034.60	2550.00
1035.32	2539.00
1036.04	2549.00
1036.76	2540.00
1037.48	2538.00
1038.20	2539.00
1038.92	2544.00
1039.64	2537.00
1040.36	2543.00
1041.08	2544.00
1041.80	2547.00
1042.52	2539.00
1043.24	2540.00
1043.96	2541.00
1044.68	2542.00
1045.40	2548.00
1046.11	2555.00
1046.83	2539.00
1047.55	2549.00
1048.27	2539.00
1048.99	2548.00
1049.71	2544.00
1050.43	2550.00
1051.15	2543.00
1051.86	2559.00
1052.58	2543.00
1053.30	2551.00
1054.02	2544.00
1054.74	2545.00
1055.45	2560.00
1056.17	2550.00
1056.89	2541.00
1057.61	2545.00
1058.33	2550.00
1059.04	2552.00
1059.76	2545.00
1060.48	2541.00
1061.20	2543.00
1061.91	2543.00
1062.63	2543.00
1063.35	2542.00
1064.06	2547.00
1064.78	2549.00
1065.50	2550.00
1066.22	2552.00
1066.93	2544.00
1067.65	2544.00
1068.36	2550.00
1069.08	2546.00
1069.80	2549.00
1070.51	2549.00
1071.23	2552.00
1071.95	2554.00
1072.66	2554.00
1073.38	2556.00
1074.09	2558.00
1074.81	2556.00
1075.53	2556.00
1076.24	2559.00
1076.96	2560.00
1077.67	2565.00
1078.39	2570.00
1079.10	2570.00
1079.82	2564.00
1080.53	2566.00
1081.25	2572.00
1081.96	2571.00
1082.68	2571.00
1083.39	2568.00
1084.11	2568.00
1084.82	2566.00
1085.54	2576.00
1086.25	2580.00
1086.97	2572.00
1087.68	2583.00
1088.39	2588.00
1089.11	2591.00
1089.82	2578.00
1090.54	2590.00
1091.25	2580.00
1091.96	2582.00
1092.68	2593.00
1093.39	2588.00
1094.10	2587.00
1094.82	2590.00
1095.53	2588.00
1096.24	2596.00
1096.96	2590.00
1097.67	2589.00
1098.38	2587.00
1099.10	2585.00
1099.81	2594.00
1100.52	2592.00
1101.23	2590.00
1101.95	2592.00
1102.66	2584.00
1103.37	2588.00
1104.08	2590.00
1104.80	2586.00
1105.51	2591.00
1106.22	2597.00
1106.93	2586.00
1107.64	2580.00
1108.36	2598.00
1109.07	2592.00
1109.78	2581.00
1110.49	2580.00
1111.20	2587.00
1111.91	2592.00
1112.63	2586.00
1113.34	2583.00
1114.05	2591.00
1114.76	2592.00
1115.47	2586.00
1116.18	2590.00
1116.89	2485.00
1117.60	2481.00
1118.31	2478.00
1119.02	2478.00
1119.73	2554.00
1120.44	2561.00
1121.16	2559.00
1121.87	2553.00
1122.58	2563.00
1123.29	2556.00
1124.00	2581.00
1124.71	2578.00
1125.42	2592.00
1126.12	2597.00
1126.83	2584.00
1127.54	2584.00
1128.25	2481.00
1128.96	2482.00
1129.67	2491.00
1130.38	2501.00
