SpectraSuite Data File
++++++++++++++++++++++++++++++++++++
Date: Sun Dec 15 16:13:34 CET 2019
User: fiberoptics
Dark Spectrum Present: No
Reference Spectrum Present: No
Number of Sampled Component Spectra: 1
Spectrometers: QEPB0198
Integration Time (usec): 100000 (QEPB0198)
Spectra Averaged: 1 (QEPB0198)
Boxcar Smoothing: 0 (QEPB0198)
Correct for Electrical Dark: No (QEPB0198)
Strobe/Lamp Enabled: No (QEPB0198)
Correct for Detector Non-linearity: No (QEPB0198)
Correct for Stray Light: No (QEPB0198)
Number of Pixels in Processed Spectrum: 1044
>>>>>Begin Processed Spectral Data<<<<<
348.19	2561.00
348.97	2548.00
349.76	2557.00
350.55	2557.00
351.34	2552.00
352.12	2562.00
352.91	2566.00
353.70	2565.00
354.48	2556.00
355.27	2554.00
356.06	2566.00
356.84	2564.00
357.63	2566.00
358.42	2566.00
359.20	2580.00
359.99	2589.00
360.77	2614.00
361.56	2655.00
362.35	2680.00
363.13	2705.00
363.92	2711.00
364.70	2710.00
365.49	2704.00
366.28	2699.00
367.06	2679.00
367.85	2660.00
368.63	2607.00
369.42	2593.00
370.20	2595.00
370.99	2589.00
371.77	2591.00
372.56	2595.00
373.35	2592.00
374.13	2608.00
374.92	2600.00
375.70	2612.00
376.49	2608.00
377.27	2619.00
378.06	2621.00
378.84	2630.00
379.62	2629.00
380.41	2645.00
381.19	2651.00
381.98	2659.00
382.76	2655.00
383.55	2662.00
384.33	2672.00
385.12	2676.00
385.90	2690.00
386.68	2706.00
387.47	2716.00
388.25	2725.00
389.04	2743.00
389.82	2762.00
390.60	2765.00
391.39	2771.00
392.17	2784.00
392.95	2808.00
393.74	2827.00
394.52	2844.00
395.30	2868.00
396.09	2895.00
396.87	2918.00
397.65	2945.00
398.44	2984.00
399.22	3064.00
400.00	3257.00
400.79	3686.00
401.57	4024.00
402.35	4168.00
403.13	4282.00
403.92	4384.00
404.70	4458.00
405.48	4461.00
406.26	4466.00
407.05	4391.00
407.83	4194.00
408.61	4151.00
409.39	4272.00
410.18	4449.00
410.96	4654.00
411.74	4867.00
412.52	5158.00
413.30	5468.00
414.08	5814.00
414.87	6200.00
415.65	6621.00
416.43	7079.00
417.21	7519.00
417.99	8075.00
418.77	8639.00
419.56	9246.00
420.34	9911.00
421.12	10619.00
421.90	11396.00
422.68	12128.00
423.46	13050.00
424.24	13854.00
425.02	14809.00
425.80	15709.00
426.58	16727.00
427.36	17722.00
428.14	18706.00
428.93	19805.00
429.71	20910.00
430.49	22104.00
431.27	23995.00
432.05	26565.00
432.83	28690.00
433.61	30003.00
434.39	31090.00
435.17	32130.00
435.95	32930.00
436.73	33652.00
437.51	34130.00
438.29	34368.00
439.07	34040.00
439.85	34334.00
440.62	35193.00
441.40	36066.00
442.18	36964.00
442.96	37857.00
443.74	38620.00
444.52	39417.00
445.30	40099.00
446.08	40670.00
446.86	41069.00
447.64	41347.00
448.42	41507.00
449.19	41470.00
449.97	41193.00
450.75	40672.00
451.53	39885.00
452.31	39131.00
453.09	38043.00
453.87	37036.00
454.64	35699.00
455.42	34488.00
456.20	33219.00
456.98	31845.00
457.76	30486.00
458.53	29370.00
459.31	28113.00
460.09	26965.00
460.87	25878.00
461.65	24794.00
462.42	23931.00
463.20	23051.00
463.98	22239.00
464.76	21492.00
465.53	20827.00
466.31	20098.00
467.09	19510.00
467.86	18997.00
468.64	18367.00
469.42	17886.00
470.20	17362.00
470.97	16875.00
471.75	16456.00
472.53	16038.00
473.30	15640.00
474.08	15341.00
474.86	14972.00
475.63	14641.00
476.41	14418.00
477.18	14175.00
477.96	14006.00
478.74	13845.00
479.51	13697.00
480.29	13587.00
481.07	13535.00
481.84	13455.00
482.62	13436.00
483.39	13480.00
484.17	13513.00
484.94	13595.00
485.72	13672.00
486.50	13781.00
487.27	13966.00
488.05	14088.00
488.82	14296.00
489.60	14518.00
490.37	14700.00
491.15	14942.00
491.92	15268.00
492.70	15499.00
493.47	15835.00
494.25	16130.00
495.02	16498.00
495.80	16899.00
496.57	17289.00
497.35	17753.00
498.12	18260.00
498.89	18680.00
499.67	19231.00
500.44	19752.00
501.22	20296.00
501.99	20872.00
502.77	21433.00
503.54	21986.00
504.31	22650.00
505.09	23207.00
505.86	23841.00
506.63	24433.00
507.41	25061.00
508.18	25768.00
508.96	26340.00
509.73	27021.00
510.50	27665.00
511.28	28271.00
512.05	28944.00
512.82	29486.00
513.59	30127.00
514.37	30709.00
515.14	31323.00
515.91	31930.00
516.69	32523.00
517.46	33063.00
518.23	33672.00
519.00	34267.00
519.78	34806.00
520.55	35270.00
521.32	35931.00
522.09	36395.00
522.87	37036.00
523.64	37520.00
524.41	37952.00
525.18	38533.00
525.95	39044.00
526.73	39566.00
527.50	39953.00
528.27	40388.00
529.04	40861.00
529.81	41326.00
530.59	41702.00
531.36	42143.00
532.13	42544.00
532.90	42991.00
533.67	43376.00
534.44	43785.00
535.21	44206.00
535.98	44548.00
536.76	44943.00
537.53	45397.00
538.30	45706.00
539.07	46193.00
539.84	46531.00
540.61	47135.00
541.38	48119.00
542.15	50858.00
542.92	52761.00
543.69	53366.00
544.46	53877.00
545.23	54042.00
546.00	54140.00
546.77	54162.00
547.54	53755.00
548.31	53242.00
549.08	51452.00
549.85	50312.00
550.62	50306.00
551.39	50524.00
552.16	50705.00
552.93	50901.00
553.70	51037.00
554.47	51329.00
555.24	51558.00
556.01	51724.00
556.78	51792.00
557.55	52038.00
558.32	52248.00
559.09	52389.00
559.85	52488.00
560.62	52627.00
561.39	52808.00
562.16	52928.00
562.93	53096.00
563.70	53194.00
564.47	53351.00
565.23	53370.00
566.00	53515.00
566.77	53648.00
567.54	53801.00
568.31	53883.00
569.08	53908.00
569.84	53876.00
570.61	53987.00
571.38	53934.00
572.15	54207.00
572.92	54648.00
573.68	54875.00
574.45	55215.00
575.22	55621.00
575.99	55825.00
576.75	55892.00
577.52	55799.00
578.29	55807.00
579.05	55719.00
579.82	55258.00
580.59	54887.00
581.36	54668.00
582.12	54373.00
582.89	54064.00
583.66	54096.00
584.42	54035.00
585.19	54065.00
585.96	54074.00
586.72	53986.00
587.49	53894.00
588.26	53937.00
589.02	53950.00
589.79	53953.00
590.55	53985.00
591.32	53795.00
592.09	53836.00
592.85	53855.00
593.62	53700.00
594.38	53780.00
595.15	53698.00
595.91	53694.00
596.68	53651.00
597.45	53536.00
598.21	53408.00
598.98	53366.00
599.74	53273.00
600.51	53154.00
601.27	53058.00
602.04	52929.00
602.80	52697.00
603.57	52575.00
604.33	52375.00
605.10	52065.00
605.86	51938.00
606.63	51760.00
607.39	51675.00
608.15	51563.00
608.92	51366.00
609.68	51100.00
610.45	50932.00
611.21	50552.00
611.98	50294.00
612.74	49844.00
613.50	49396.00
614.27	48910.00
615.03	48291.00
615.80	47845.00
616.56	47500.00
617.32	46947.00
618.09	46469.00
618.85	45989.00
619.61	45480.00
620.38	45089.00
621.14	44784.00
621.90	44298.00
622.67	43719.00
623.43	43269.00
624.19	42714.00
624.96	42373.00
625.72	41783.00
626.48	41396.00
627.24	40880.00
628.01	40398.00
628.77	39849.00
629.53	39385.00
630.29	38944.00
631.06	38494.00
631.82	38058.00
632.58	37520.00
633.34	37100.00
634.10	36553.00
634.87	36159.00
635.63	35761.00
636.39	35212.00
637.15	34710.00
637.91	34283.00
638.68	33884.00
639.44	33349.00
640.20	32938.00
640.96	32514.00
641.72	32024.00
642.48	31670.00
643.24	31180.00
644.00	30700.00
644.77	30285.00
645.53	29821.00
646.29	29383.00
647.05	28921.00
647.81	28567.00
648.57	28147.00
649.33	27724.00
650.09	27297.00
650.85	26936.00
651.61	26525.00
652.37	26065.00
653.13	25670.00
653.89	25262.00
654.65	24885.00
655.41	24456.00
656.17	24054.00
656.93	23713.00
657.69	23294.00
658.45	22876.00
659.21	22484.00
659.97	22105.00
660.73	21651.00
661.49	21321.00
662.25	20879.00
663.01	20490.00
663.77	20137.00
664.53	19792.00
665.29	19448.00
666.05	19084.00
666.80	18699.00
667.56	18333.00
668.32	17981.00
669.08	17653.00
669.84	17350.00
670.60	17005.00
671.36	16684.00
672.11	16363.00
672.87	16094.00
673.63	15820.00
674.39	15579.00
675.15	15291.00
675.91	15065.00
676.66	14812.00
677.42	14610.00
678.18	14350.00
678.94	14192.00
679.69	13986.00
680.45	13839.00
681.21	13608.00
681.97	13453.00
682.73	13283.00
683.48	13102.00
684.24	12970.00
685.00	12756.00
685.75	12595.00
686.51	12478.00
687.27	12351.00
688.02	12182.00
688.78	12025.00
689.54	11850.00
690.30	11691.00
691.05	11564.00
691.81	11404.00
692.56	11216.00
693.32	11060.00
694.08	10936.00
694.83	10723.00
695.59	10612.00
696.35	10461.00
697.10	10266.00
697.86	10142.00
698.61	10014.00
699.37	9882.00
700.13	9771.00
700.88	9592.00
701.64	9480.00
702.39	9297.00
703.15	9192.00
703.90	9067.00
704.66	8946.00
705.41	8818.00
706.17	8710.00
706.92	8567.00
707.68	8445.00
708.43	8330.00
709.19	8222.00
709.94	8104.00
710.70	7981.00
711.45	7830.00
712.21	7694.00
712.96	7626.00
713.72	7509.00
714.47	7372.00
715.22	7250.00
715.98	7145.00
716.73	7010.00
717.49	6904.00
718.24	6810.00
718.99	6724.00
719.75	6594.00
720.50	6516.00
721.26	6430.00
722.01	6343.00
722.76	6263.00
723.52	6173.00
724.27	6080.00
725.02	5992.00
725.78	5954.00
726.53	5883.00
727.28	5837.00
728.03	5735.00
728.79	5665.00
729.54	5591.00
730.29	5548.00
731.05	5486.00
731.80	5427.00
732.55	5361.00
733.30	5330.00
734.06	5272.00
734.81	5225.00
735.56	5150.00
736.31	5112.00
737.06	5070.00
737.82	5026.00
738.57	4984.00
739.32	4935.00
740.07	4878.00
740.82	4840.00
741.58	4780.00
742.33	4733.00
743.08	4693.00
743.83	4645.00
744.58	4618.00
745.33	4609.00
746.08	4554.00
746.84	4512.00
747.59	4481.00
748.34	4421.00
749.09	4408.00
749.84	4376.00
750.59	4328.00
751.34	4300.00
752.09	4251.00
752.84	4235.00
753.59	4183.00
754.34	4145.00
755.09	4124.00
755.84	4077.00
756.59	4044.00
757.34	4006.00
758.09	3983.00
758.84	3987.00
759.59	3945.00
760.34	3916.00
761.09	3896.00
761.84	3884.00
762.59	3856.00
763.34	3824.00
764.09	3810.00
764.84	3776.00
765.59	3739.00
766.34	3720.00
767.09	3694.00
767.84	3658.00
768.58	3650.00
769.33	3635.00
770.08	3606.00
770.83	3583.00
771.58	3581.00
772.33	3555.00
773.08	3512.00
773.83	3492.00
774.57	3493.00
775.32	3467.00
776.07	3452.00
776.82	3412.00
777.57	3388.00
778.31	3384.00
779.06	3347.00
779.81	3348.00
780.56	3316.00
781.31	3301.00
782.05	3299.00
782.80	3274.00
783.55	3259.00
784.30	3248.00
785.04	3227.00
785.79	3208.00
786.54	3214.00
787.28	3182.00
788.03	3170.00
788.78	3168.00
789.52	3146.00
790.27	3140.00
791.02	3131.00
791.76	3126.00
792.51	3107.00
793.26	3100.00
794.00	3081.00
794.75	3085.00
795.50	3062.00
796.24	3057.00
796.99	3054.00
797.73	3030.00
798.48	3034.00
799.23	3014.00
799.97	3013.00
800.72	2992.00
801.46	2991.00
802.21	2985.00
802.95	2967.00
803.70	2951.00
804.45	2948.00
805.19	2931.00
805.94	2927.00
806.68	2934.00
807.43	2952.00
808.17	2950.00
808.92	2946.00
809.66	2933.00
810.40	2942.00
811.15	2928.00
811.89	2916.00
812.64	2915.00
813.38	2885.00
814.13	2873.00
814.87	2843.00
815.62	2840.00
816.36	2840.00
817.10	2818.00
817.85	2817.00
818.59	2807.00
819.34	2812.00
820.08	2808.00
820.82	2790.00
821.57	2780.00
822.31	2790.00
823.05	2792.00
823.80	2777.00
824.54	2786.00
825.28	2776.00
826.03	2769.00
826.77	2758.00
827.51	2756.00
828.25	2753.00
829.00	2750.00
829.74	2738.00
830.48	2732.00
831.23	2729.00
831.97	2721.00
832.71	2719.00
833.45	2719.00
834.19	2722.00
834.94	2712.00
835.68	2711.00
836.42	2716.00
837.16	2712.00
837.90	2720.00
838.65	2722.00
839.39	2725.00
840.13	2721.00
840.87	2719.00
841.61	2703.00
842.35	2716.00
843.10	2703.00
843.84	2690.00
844.58	2690.00
845.32	2675.00
846.06	2670.00
846.80	2675.00
847.54	2665.00
848.28	2666.00
849.02	2664.00
849.76	2660.00
850.50	2661.00
851.24	2660.00
851.99	2651.00
852.73	2654.00
853.47	2646.00
854.21	2652.00
854.95	2646.00
855.69	2644.00
856.43	2633.00
857.17	2635.00
857.91	2633.00
858.64	2632.00
859.38	2620.00
860.12	2629.00
860.86	2628.00
861.60	2623.00
862.34	2618.00
863.08	2612.00
863.82	2621.00
864.56	2616.00
865.30	2626.00
866.04	2625.00
866.78	2611.00
867.52	2606.00
868.25	2611.00
868.99	2607.00
869.73	2608.00
870.47	2600.00
871.21	2607.00
871.95	2599.00
872.68	2614.00
873.42	2596.00
874.16	2597.00
874.90	2599.00
875.64	2595.00
876.37	2601.00
877.11	2598.00
877.85	2593.00
878.59	2589.00
879.32	2589.00
880.06	2589.00
880.80	2589.00
881.54	2584.00
882.27	2584.00
883.01	2584.00
883.75	2598.00
884.48	2582.00
885.22	2589.00
885.96	2585.00
886.70	2575.00
887.43	2583.00
888.17	2583.00
888.90	2572.00
889.64	2579.00
890.38	2576.00
891.11	2585.00
891.85	2579.00
892.59	2574.00
893.32	2579.00
894.06	2574.00
894.79	2575.00
895.53	2575.00
896.27	2577.00
897.00	2575.00
897.74	2574.00
898.47	2574.00
899.21	2575.00
899.94	2575.00
900.68	2571.00
901.41	2565.00
902.15	2572.00
902.88	2566.00
903.62	2566.00
904.35	2565.00
905.09	2590.00
905.82	2570.00
906.56	2575.00
907.29	2574.00
908.03	2569.00
908.76	2567.00
909.49	2580.00
910.23	2570.00
910.96	2576.00
911.70	2577.00
912.43	2574.00
913.16	2577.00
913.90	2572.00
914.63	2569.00
915.37	2563.00
916.10	2562.00
916.83	2565.00
917.57	2555.00
918.30	2560.00
919.03	2562.00
919.77	2560.00
920.50	2566.00
921.23	2567.00
921.97	2563.00
922.70	2568.00
923.43	2567.00
924.16	2558.00
924.90	2553.00
925.63	2555.00
926.36	2556.00
927.09	2565.00
927.83	2557.00
928.56	2558.00
929.29	2554.00
930.02	2567.00
930.75	2553.00
931.49	2562.00
932.22	2561.00
932.95	2568.00
933.68	2550.00
934.41	2554.00
935.14	2551.00
935.88	2561.00
936.61	2556.00
937.34	2557.00
938.07	2558.00
938.80	2547.00
939.53	2550.00
940.26	2556.00
940.99	2561.00
941.72	2550.00
942.46	2553.00
943.19	2551.00
943.92	2545.00
944.65	2539.00
945.38	2554.00
946.11	2551.00
946.84	2559.00
947.57	2555.00
948.30	2549.00
949.03	2549.00
949.76	2543.00
950.49	2554.00
951.22	2553.00
951.95	2552.00
952.68	2548.00
953.41	2554.00
954.14	2555.00
954.86	2544.00
955.59	2548.00
956.32	2554.00
957.05	2548.00
957.78	2552.00
958.51	2551.00
959.24	2552.00
959.97	2551.00
960.70	2549.00
961.43	2548.00
962.15	2549.00
962.88	2551.00
963.61	2548.00
964.34	2551.00
965.07	2554.00
965.80	2550.00
966.52	2552.00
967.25	2546.00
967.98	2548.00
968.71	2545.00
969.43	2548.00
970.16	2546.00
970.89	2545.00
971.62	2541.00
972.34	2546.00
973.07	2543.00
973.80	2547.00
974.53	2543.00
975.25	2548.00
975.98	2546.00
976.71	2548.00
977.43	2537.00
978.16	2544.00
978.89	2538.00
979.61	2537.00
980.34	2542.00
981.07	2546.00
981.79	2541.00
982.52	2543.00
983.25	2545.00
983.97	2540.00
984.70	2535.00
985.42	2548.00
986.15	2534.00
986.88	2539.00
987.60	2541.00
988.33	2534.00
989.05	2541.00
989.78	2536.00
990.50	2543.00
991.23	2547.00
991.95	2546.00
992.68	2542.00
993.40	2544.00
994.13	2551.00
994.85	2539.00
995.58	2548.00
996.30	2542.00
997.03	2545.00
997.75	2550.00
998.48	2547.00
999.20	2555.00
999.93	2542.00
1000.65	2547.00
1001.38	2546.00
1002.10	2550.00
1002.82	2547.00
1003.55	2552.00
1004.27	2556.00
1004.99	2560.00
1005.72	2568.00
1006.44	2568.00
1007.17	2577.00
1007.89	2585.00
1008.61	2604.00
1009.34	2660.00
1010.06	2743.00
1010.78	2798.00
1011.51	2826.00
1012.23	2845.00
1012.95	2835.00
1013.67	2827.00
1014.40	2822.00
1015.12	2791.00
1015.84	2762.00
1016.56	2693.00
1017.29	2638.00
1018.01	2608.00
1018.73	2589.00
1019.45	2572.00
1020.18	2564.00
1020.90	2569.00
1021.62	2555.00
1022.34	2557.00
1023.06	2556.00
1023.78	2566.00
1024.51	2547.00
1025.23	2544.00
1025.95	2545.00
1026.67	2551.00
1027.39	2542.00
1028.11	2545.00
1028.83	2541.00
1029.55	2541.00
1030.28	2550.00
1031.00	2541.00
1031.72	2552.00
1032.44	2545.00
1033.16	2545.00
1033.88	2550.00
1034.60	2552.00
1035.32	2544.00
1036.04	2554.00
1036.76	2543.00
1037.48	2548.00
1038.20	2542.00
1038.92	2545.00
1039.64	2550.00
1040.36	2537.00
1041.08	2545.00
1041.80	2545.00
1042.52	2541.00
1043.24	2542.00
1043.96	2541.00
1044.68	2549.00
1045.40	2546.00
1046.11	2554.00
1046.83	2545.00
1047.55	2548.00
1048.27	2539.00
1048.99	2547.00
1049.71	2543.00
1050.43	2551.00
1051.15	2540.00
1051.86	2558.00
1052.58	2547.00
1053.30	2555.00
1054.02	2544.00
1054.74	2553.00
1055.45	2559.00
1056.17	2552.00
1056.89	2543.00
1057.61	2547.00
1058.33	2550.00
1059.04	2553.00
1059.76	2547.00
1060.48	2545.00
1061.20	2544.00
1061.91	2552.00
1062.63	2544.00
1063.35	2545.00
1064.06	2552.00
1064.78	2551.00
1065.50	2547.00
1066.22	2549.00
1066.93	2549.00
1067.65	2547.00
1068.36	2554.00
1069.08	2550.00
1069.80	2552.00
1070.51	2554.00
1071.23	2553.00
1071.95	2558.00
1072.66	2560.00
1073.38	2559.00
1074.09	2559.00
1074.81	2556.00
1075.53	2559.00
1076.24	2563.00
1076.96	2561.00
1077.67	2565.00
1078.39	2571.00
1079.10	2568.00
1079.82	2575.00
1080.53	2571.00
1081.25	2576.00
1081.96	2574.00
1082.68	2571.00
1083.39	2570.00
1084.11	2570.00
1084.82	2570.00
1085.54	2584.00
1086.25	2579.00
1086.97	2582.00
1087.68	2588.00
1088.39	2583.00
1089.11	2595.00
1089.82	2587.00
1090.54	2595.00
1091.25	2587.00
1091.96	2589.00
1092.68	2598.00
1093.39	2602.00
1094.10	2590.00
1094.82	2597.00
1095.53	2590.00
1096.24	2594.00
1096.96	2592.00
1097.67	2598.00
1098.38	2591.00
1099.10	2589.00
1099.81	2599.00
1100.52	2596.00
1101.23	2593.00
1101.95	2599.00
1102.66	2593.00
1103.37	2590.00
1104.08	2588.00
1104.80	2595.00
1105.51	2595.00
1106.22	2601.00
1106.93	2587.00
1107.64	2594.00
1108.36	2602.00
1109.07	2592.00
1109.78	2589.00
1110.49	2587.00
1111.20	2595.00
1111.91	2595.00
1112.63	2588.00
1113.34	2590.00
1114.05	2596.00
1114.76	2586.00
1115.47	2591.00
1116.18	2596.00
1116.89	2485.00
1117.60	2485.00
1118.31	2479.00
1119.02	2480.00
1119.73	2556.00
1120.44	2562.00
1121.16	2553.00
1121.87	2556.00
1122.58	2557.00
1123.29	2555.00
1124.00	2586.00
1124.71	2583.00
1125.42	2594.00
1126.12	2602.00
1126.83	2588.00
1127.54	2589.00
1128.25	2487.00
1128.96	2485.00
1129.67	2490.00
1130.38	2504.00
