SpectraSuite Data File
++++++++++++++++++++++++++++++++++++
Date: Sun Dec 15 16:43:15 CET 2019
User: fiberoptics
Dark Spectrum Present: No
Reference Spectrum Present: No
Number of Sampled Component Spectra: 1
Spectrometers: QEPB0198
Integration Time (usec): 100000 (QEPB0198)
Spectra Averaged: 1 (QEPB0198)
Boxcar Smoothing: 0 (QEPB0198)
Correct for Electrical Dark: No (QEPB0198)
Strobe/Lamp Enabled: No (QEPB0198)
Correct for Detector Non-linearity: No (QEPB0198)
Correct for Stray Light: No (QEPB0198)
Number of Pixels in Processed Spectrum: 1044
>>>>>Begin Processed Spectral Data<<<<<
348.19	2563.00
348.97	2555.00
349.76	2558.00
350.55	2558.00
351.34	2554.00
352.12	2562.00
352.91	2559.00
353.70	2560.00
354.48	2556.00
355.27	2557.00
356.06	2568.00
356.84	2561.00
357.63	2568.00
358.42	2567.00
359.20	2573.00
359.99	2572.00
360.77	2560.00
361.56	2563.00
362.35	2564.00
363.13	2570.00
363.92	2569.00
364.70	2569.00
365.49	2568.00
366.28	2574.00
367.06	2577.00
367.85	2580.00
368.63	2571.00
369.42	2574.00
370.20	2572.00
370.99	2575.00
371.77	2580.00
372.56	2583.00
373.35	2581.00
374.13	2591.00
374.92	2583.00
375.70	2596.00
376.49	2594.00
377.27	2601.00
378.06	2602.00
378.84	2610.00
379.62	2610.00
380.41	2617.00
381.19	2622.00
381.98	2635.00
382.76	2632.00
383.55	2631.00
384.33	2637.00
385.12	2653.00
385.90	2663.00
386.68	2674.00
387.47	2672.00
388.25	2687.00
389.04	2698.00
389.82	2712.00
390.60	2726.00
391.39	2735.00
392.17	2747.00
392.95	2760.00
393.74	2790.00
394.52	2802.00
395.30	2825.00
396.09	2841.00
396.87	2872.00
397.65	2903.00
398.44	2932.00
399.22	2968.00
400.00	3014.00
400.79	3064.00
401.57	3123.00
402.35	3183.00
403.13	3245.00
403.92	3338.00
404.70	3446.00
405.48	3572.00
406.26	3704.00
407.05	3862.00
407.83	4034.00
408.61	4241.00
409.39	4489.00
410.18	4739.00
410.96	5040.00
411.74	5343.00
412.52	5698.00
413.30	6142.00
414.08	6603.00
414.87	7065.00
415.65	7609.00
416.43	8212.00
417.21	8855.00
417.99	9543.00
418.77	10304.00
419.56	11102.00
420.34	11979.00
421.12	12929.00
421.90	13940.00
422.68	14972.00
423.46	16055.00
424.24	17201.00
425.02	18390.00
425.80	19650.00
426.58	20945.00
427.36	22237.00
428.14	23542.00
428.93	24902.00
429.71	26314.00
430.49	27719.00
431.27	29157.00
432.05	30557.00
432.83	31960.00
433.61	33313.00
434.39	34560.00
435.17	35971.00
435.95	37246.00
436.73	38452.00
437.51	39725.00
438.29	40974.00
439.07	42100.00
439.85	43207.00
440.62	44349.00
441.40	45468.00
442.18	46499.00
442.96	47505.00
443.74	48460.00
444.52	49415.00
445.30	50290.00
446.08	51096.00
446.86	51728.00
447.64	52321.00
448.42	52633.00
449.19	52768.00
449.97	52765.00
450.75	52463.00
451.53	51930.00
452.31	51373.00
453.09	50253.00
453.87	49140.00
454.64	47841.00
455.42	46386.00
456.20	44808.00
456.98	43170.00
457.76	41341.00
458.53	39753.00
459.31	38031.00
460.09	36430.00
460.87	34913.00
461.65	33448.00
462.42	32061.00
463.20	30798.00
463.98	29570.00
464.76	28457.00
465.53	27434.00
466.31	26483.00
467.09	25607.00
467.86	24697.00
468.64	23912.00
469.42	23153.00
470.20	22350.00
470.97	21681.00
471.75	21007.00
472.53	20348.00
473.30	19748.00
474.08	19151.00
474.86	18594.00
475.63	18104.00
476.41	17569.00
477.18	17167.00
477.96	16799.00
478.74	16415.00
479.51	16178.00
480.29	15868.00
481.07	15637.00
481.84	15414.00
482.62	15301.00
483.39	15194.00
484.17	15072.00
484.94	15044.00
485.72	14992.00
486.50	15051.00
487.27	15120.00
488.05	15099.00
488.82	15252.00
489.60	15342.00
490.37	15554.00
491.15	15735.00
491.92	15950.00
492.70	16178.00
493.47	16393.00
494.25	16759.00
495.02	17088.00
495.80	17503.00
496.57	17852.00
497.35	18235.00
498.12	18718.00
498.89	19081.00
499.67	19624.00
500.44	20214.00
501.22	20650.00
501.99	21240.00
502.77	21806.00
503.54	22377.00
504.31	22983.00
505.09	23571.00
505.86	24170.00
506.63	24794.00
507.41	25424.00
508.18	25991.00
508.96	26598.00
509.73	27186.00
510.50	27864.00
511.28	28388.00
512.05	29143.00
512.82	29554.00
513.59	30117.00
514.37	30704.00
515.14	31243.00
515.91	31721.00
516.69	32347.00
517.46	32793.00
518.23	33296.00
519.00	33698.00
519.78	34274.00
520.55	34704.00
521.32	35268.00
522.09	35588.00
522.87	36078.00
523.64	36571.00
524.41	36906.00
525.18	37362.00
525.95	37712.00
526.73	38018.00
527.50	38403.00
528.27	38703.00
529.04	39092.00
529.81	39429.00
530.59	39627.00
531.36	39885.00
532.13	40187.00
532.90	40456.00
533.67	40753.00
534.44	40937.00
535.21	41132.00
535.98	41426.00
536.76	41541.00
537.53	41751.00
538.30	41961.00
539.07	42224.00
539.84	42262.00
540.61	42472.00
541.38	42568.00
542.15	42755.00
542.92	42833.00
543.69	42929.00
544.46	43098.00
545.23	43105.00
546.00	43158.00
546.77	43305.00
547.54	43398.00
548.31	43389.00
549.08	43476.00
549.85	43466.00
550.62	43538.00
551.39	43601.00
552.16	43599.00
552.93	43649.00
553.70	43658.00
554.47	43737.00
555.24	43750.00
556.01	43699.00
556.78	43754.00
557.55	43679.00
558.32	43608.00
559.09	43574.00
559.85	43615.00
560.62	43514.00
561.39	43507.00
562.16	43468.00
562.93	43441.00
563.70	43406.00
564.47	43371.00
565.23	43211.00
566.00	43262.00
566.77	43193.00
567.54	43128.00
568.31	43027.00
569.08	42955.00
569.84	42922.00
570.61	42727.00
571.38	42721.00
572.15	42517.00
572.92	42513.00
573.68	42368.00
574.45	42180.00
575.22	42124.00
575.99	41962.00
576.75	41854.00
577.52	41687.00
578.29	41622.00
579.05	41454.00
579.82	41300.00
580.59	41166.00
581.36	40926.00
582.12	40743.00
582.89	40597.00
583.66	40416.00
584.42	40108.00
585.19	40013.00
585.96	39830.00
586.72	39520.00
587.49	39412.00
588.26	39130.00
589.02	38922.00
589.79	38679.00
590.55	38384.00
591.32	38120.00
592.09	37899.00
592.85	37644.00
593.62	37429.00
594.38	37063.00
595.15	36838.00
595.91	36600.00
596.68	36248.00
597.45	36023.00
598.21	35704.00
598.98	35521.00
599.74	35213.00
600.51	34972.00
601.27	34767.00
602.04	34507.00
602.80	34129.00
603.57	33856.00
604.33	33534.00
605.10	33267.00
605.86	33067.00
606.63	32772.00
607.39	32482.00
608.15	32263.00
608.92	32021.00
609.68	31711.00
610.45	31458.00
611.21	31180.00
611.98	31040.00
612.74	30698.00
613.50	30416.00
614.27	30201.00
615.03	29888.00
615.80	29607.00
616.56	29373.00
617.32	29041.00
618.09	28736.00
618.85	28518.00
619.61	28228.00
620.38	27949.00
621.14	27738.00
621.90	27378.00
622.67	27139.00
623.43	26866.00
624.19	26491.00
624.96	26240.00
625.72	25947.00
626.48	25689.00
627.24	25373.00
628.01	25071.00
628.77	24776.00
629.53	24502.00
630.29	24216.00
631.06	23951.00
631.82	23648.00
632.58	23453.00
633.34	23197.00
634.10	22927.00
634.87	22632.00
635.63	22369.00
636.39	22178.00
637.15	21860.00
637.91	21630.00
638.68	21349.00
639.44	21033.00
640.20	20787.00
640.96	20580.00
641.72	20234.00
642.48	20019.00
643.24	19804.00
644.00	19545.00
644.77	19276.00
645.53	19101.00
646.29	18786.00
647.05	18569.00
647.81	18361.00
648.57	18085.00
649.33	17899.00
650.09	17665.00
650.85	17415.00
651.61	17165.00
652.37	16978.00
653.13	16709.00
653.89	16486.00
654.65	16278.00
655.41	15998.00
656.17	15783.00
656.93	15580.00
657.69	15319.00
658.45	15141.00
659.21	14880.00
659.97	14592.00
660.73	14365.00
661.49	14111.00
662.25	13858.00
663.01	13612.00
663.77	13485.00
664.53	13168.00
665.29	12964.00
666.05	12722.00
666.80	12465.00
667.56	12279.00
668.32	12026.00
669.08	11826.00
669.84	11568.00
670.60	11400.00
671.36	11197.00
672.11	11050.00
672.87	10862.00
673.63	10708.00
674.39	10595.00
675.15	10411.00
675.91	10320.00
676.66	10194.00
677.42	10095.00
678.18	10018.00
678.94	9895.00
679.69	9786.00
680.45	9711.00
681.21	9661.00
681.97	9559.00
682.73	9423.00
683.48	9378.00
684.24	9302.00
685.00	9211.00
685.75	9150.00
686.51	9075.00
687.27	9001.00
688.02	8936.00
688.78	8834.00
689.54	8749.00
690.30	8670.00
691.05	8596.00
691.81	8487.00
692.56	8413.00
693.32	8326.00
694.08	8226.00
694.83	8139.00
695.59	8044.00
696.35	7975.00
697.10	7888.00
697.86	7772.00
698.61	7667.00
699.37	7609.00
700.13	7520.00
700.88	7436.00
701.64	7355.00
702.39	7258.00
703.15	7133.00
703.90	7091.00
704.66	6977.00
705.41	6878.00
706.17	6817.00
706.92	6733.00
707.68	6658.00
708.43	6574.00
709.19	6530.00
709.94	6432.00
710.70	6381.00
711.45	6298.00
712.21	6227.00
712.96	6151.00
713.72	6083.00
714.47	6003.00
715.22	5915.00
715.98	5876.00
716.73	5779.00
717.49	5719.00
718.24	5656.00
718.99	5598.00
719.75	5539.00
720.50	5461.00
721.26	5381.00
722.01	5341.00
722.76	5298.00
723.52	5224.00
724.27	5181.00
725.02	5128.00
725.78	5085.00
726.53	5052.00
727.28	5002.00
728.03	4957.00
728.79	4939.00
729.54	4863.00
730.29	4835.00
731.05	4785.00
731.80	4752.00
732.55	4702.00
733.30	4720.00
734.06	4644.00
734.81	4619.00
735.56	4576.00
736.31	4546.00
737.06	4525.00
737.82	4461.00
738.57	4451.00
739.32	4384.00
740.07	4374.00
740.82	4347.00
741.58	4350.00
742.33	4300.00
743.08	4251.00
743.83	4251.00
744.58	4243.00
745.33	4207.00
746.08	4184.00
746.84	4154.00
747.59	4132.00
748.34	4110.00
749.09	4088.00
749.84	4069.00
750.59	4053.00
751.34	4039.00
752.09	4022.00
752.84	3995.00
753.59	3972.00
754.34	3972.00
755.09	3927.00
755.84	3907.00
756.59	3884.00
757.34	3876.00
758.09	3872.00
758.84	3856.00
759.59	3839.00
760.34	3812.00
761.09	3780.00
761.84	3780.00
762.59	3762.00
763.34	3739.00
764.09	3728.00
764.84	3719.00
765.59	3691.00
766.34	3664.00
767.09	3653.00
767.84	3635.00
768.58	3616.00
769.33	3602.00
770.08	3578.00
770.83	3573.00
771.58	3543.00
772.33	3534.00
773.08	3524.00
773.83	3498.00
774.57	3480.00
775.32	3458.00
776.07	3449.00
776.82	3426.00
777.57	3394.00
778.31	3391.00
779.06	3368.00
779.81	3367.00
780.56	3336.00
781.31	3325.00
782.05	3306.00
782.80	3298.00
783.55	3284.00
784.30	3269.00
785.04	3258.00
785.79	3220.00
786.54	3233.00
787.28	3218.00
788.03	3188.00
788.78	3188.00
789.52	3164.00
790.27	3148.00
791.02	3146.00
791.76	3130.00
792.51	3109.00
793.26	3087.00
794.00	3101.00
794.75	3091.00
795.50	3065.00
796.24	3065.00
796.99	3054.00
797.73	3036.00
798.48	3034.00
799.23	3020.00
799.97	3006.00
800.72	3002.00
801.46	2992.00
802.21	2982.00
802.95	2977.00
803.70	2961.00
804.45	2957.00
805.19	2947.00
805.94	2932.00
806.68	2920.00
807.43	2920.00
808.17	2907.00
808.92	2902.00
809.66	2902.00
810.40	2886.00
811.15	2885.00
811.89	2878.00
812.64	2876.00
813.38	2859.00
814.13	2858.00
814.87	2855.00
815.62	2848.00
816.36	2840.00
817.10	2835.00
817.85	2829.00
818.59	2824.00
819.34	2821.00
820.08	2813.00
820.82	2802.00
821.57	2789.00
822.31	2798.00
823.05	2789.00
823.80	2783.00
824.54	2789.00
825.28	2772.00
826.03	2769.00
826.77	2768.00
827.51	2753.00
828.25	2755.00
829.00	2754.00
829.74	2753.00
830.48	2739.00
831.23	2738.00
831.97	2725.00
832.71	2723.00
833.45	2724.00
834.19	2721.00
834.94	2717.00
835.68	2718.00
836.42	2716.00
837.16	2707.00
837.90	2708.00
838.65	2706.00
839.39	2702.00
840.13	2698.00
840.87	2697.00
841.61	2686.00
842.35	2696.00
843.10	2685.00
843.84	2685.00
844.58	2681.00
845.32	2678.00
846.06	2669.00
846.80	2680.00
847.54	2661.00
848.28	2671.00
849.02	2668.00
849.76	2656.00
850.50	2653.00
851.24	2659.00
851.99	2647.00
852.73	2657.00
853.47	2651.00
854.21	2648.00
854.95	2651.00
855.69	2644.00
856.43	2641.00
857.17	2641.00
857.91	2629.00
858.64	2638.00
859.38	2629.00
860.12	2627.00
860.86	2633.00
861.60	2623.00
862.34	2617.00
863.08	2611.00
863.82	2622.00
864.56	2620.00
865.30	2627.00
866.04	2630.00
866.78	2610.00
867.52	2611.00
868.25	2616.00
868.99	2607.00
869.73	2604.00
870.47	2603.00
871.21	2603.00
871.95	2596.00
872.68	2612.00
873.42	2600.00
874.16	2597.00
874.90	2598.00
875.64	2595.00
876.37	2604.00
877.11	2598.00
877.85	2597.00
878.59	2594.00
879.32	2592.00
880.06	2589.00
880.80	2594.00
881.54	2589.00
882.27	2583.00
883.01	2585.00
883.75	2588.00
884.48	2588.00
885.22	2590.00
885.96	2587.00
886.70	2581.00
887.43	2581.00
888.17	2586.00
888.90	2571.00
889.64	2580.00
890.38	2583.00
891.11	2584.00
891.85	2579.00
892.59	2575.00
893.32	2578.00
894.06	2573.00
894.79	2576.00
895.53	2573.00
896.27	2578.00
897.00	2575.00
897.74	2574.00
898.47	2579.00
899.21	2577.00
899.94	2573.00
900.68	2575.00
901.41	2568.00
902.15	2578.00
902.88	2565.00
903.62	2569.00
904.35	2566.00
905.09	2594.00
905.82	2573.00
906.56	2571.00
907.29	2576.00
908.03	2562.00
908.76	2556.00
909.49	2568.00
910.23	2560.00
910.96	2566.00
911.70	2569.00
912.43	2559.00
913.16	2561.00
913.90	2559.00
914.63	2566.00
915.37	2559.00
916.10	2559.00
916.83	2559.00
917.57	2559.00
918.30	2556.00
919.03	2559.00
919.77	2560.00
920.50	2562.00
921.23	2565.00
921.97	2561.00
922.70	2562.00
923.43	2564.00
924.16	2559.00
924.90	2551.00
925.63	2551.00
926.36	2557.00
927.09	2568.00
927.83	2556.00
928.56	2566.00
929.29	2555.00
930.02	2567.00
930.75	2555.00
931.49	2567.00
932.22	2562.00
932.95	2570.00
933.68	2555.00
934.41	2553.00
935.14	2556.00
935.88	2563.00
936.61	2557.00
937.34	2553.00
938.07	2559.00
938.80	2550.00
939.53	2555.00
940.26	2555.00
940.99	2560.00
941.72	2554.00
942.46	2557.00
943.19	2556.00
943.92	2551.00
944.65	2547.00
945.38	2556.00
946.11	2549.00
946.84	2557.00
947.57	2557.00
948.30	2559.00
949.03	2552.00
949.76	2548.00
950.49	2556.00
951.22	2551.00
951.95	2550.00
952.68	2551.00
953.41	2552.00
954.14	2558.00
954.86	2549.00
955.59	2547.00
956.32	2555.00
957.05	2541.00
957.78	2550.00
958.51	2554.00
959.24	2547.00
959.97	2552.00
960.70	2548.00
961.43	2542.00
962.15	2550.00
962.88	2549.00
963.61	2546.00
964.34	2552.00
965.07	2554.00
965.80	2553.00
966.52	2549.00
967.25	2542.00
967.98	2547.00
968.71	2546.00
969.43	2544.00
970.16	2545.00
970.89	2543.00
971.62	2543.00
972.34	2542.00
973.07	2539.00
973.80	2545.00
974.53	2540.00
975.25	2550.00
975.98	2543.00
976.71	2546.00
977.43	2539.00
978.16	2539.00
978.89	2537.00
979.61	2535.00
980.34	2537.00
981.07	2544.00
981.79	2536.00
982.52	2544.00
983.25	2543.00
983.97	2536.00
984.70	2537.00
985.42	2547.00
986.15	2539.00
986.88	2541.00
987.60	2537.00
988.33	2537.00
989.05	2536.00
989.78	2543.00
990.50	2538.00
991.23	2544.00
991.95	2546.00
992.68	2538.00
993.40	2539.00
994.13	2545.00
994.85	2538.00
995.58	2547.00
996.30	2538.00
997.03	2542.00
997.75	2546.00
998.48	2541.00
999.20	2552.00
999.93	2546.00
1000.65	2539.00
1001.38	2537.00
1002.10	2536.00
1002.82	2536.00
1003.55	2538.00
1004.27	2539.00
1004.99	2541.00
1005.72	2536.00
1006.44	2536.00
1007.17	2542.00
1007.89	2535.00
1008.61	2539.00
1009.34	2537.00
1010.06	2539.00
1010.78	2536.00
1011.51	2536.00
1012.23	2545.00
1012.95	2535.00
1013.67	2538.00
1014.40	2541.00
1015.12	2543.00
1015.84	2540.00
1016.56	2539.00
1017.29	2532.00
1018.01	2544.00
1018.73	2546.00
1019.45	2536.00
1020.18	2538.00
1020.90	2548.00
1021.62	2543.00
1022.34	2538.00
1023.06	2540.00
1023.78	2555.00
1024.51	2534.00
1025.23	2535.00
1025.95	2544.00
1026.67	2547.00
1027.39	2538.00
1028.11	2541.00
1028.83	2541.00
1029.55	2539.00
1030.28	2544.00
1031.00	2540.00
1031.72	2545.00
1032.44	2544.00
1033.16	2536.00
1033.88	2546.00
1034.60	2547.00
1035.32	2539.00
1036.04	2545.00
1036.76	2540.00
1037.48	2539.00
1038.20	2536.00
1038.92	2540.00
1039.64	2545.00
1040.36	2537.00
1041.08	2544.00
1041.80	2545.00
1042.52	2543.00
1043.24	2544.00
1043.96	2542.00
1044.68	2552.00
1045.40	2547.00
1046.11	2549.00
1046.83	2543.00
1047.55	2549.00
1048.27	2543.00
1048.99	2546.00
1049.71	2543.00
1050.43	2550.00
1051.15	2539.00
1051.86	2558.00
1052.58	2545.00
1053.30	2552.00
1054.02	2546.00
1054.74	2557.00
1055.45	2560.00
1056.17	2555.00
1056.89	2538.00
1057.61	2546.00
1058.33	2549.00
1059.04	2556.00
1059.76	2552.00
1060.48	2542.00
1061.20	2543.00
1061.91	2548.00
1062.63	2540.00
1063.35	2545.00
1064.06	2546.00
1064.78	2543.00
1065.50	2549.00
1066.22	2546.00
1066.93	2547.00
1067.65	2545.00
1068.36	2545.00
1069.08	2543.00
1069.80	2552.00
1070.51	2550.00
1071.23	2552.00
1071.95	2555.00
1072.66	2553.00
1073.38	2549.00
1074.09	2555.00
1074.81	2550.00
1075.53	2548.00
1076.24	2554.00
1076.96	2555.00
1077.67	2563.00
1078.39	2560.00
1079.10	2559.00
1079.82	2562.00
1080.53	2559.00
1081.25	2566.00
1081.96	2567.00
1082.68	2561.00
1083.39	2557.00
1084.11	2559.00
1084.82	2558.00
1085.54	2571.00
1086.25	2568.00
1086.97	2566.00
1087.68	2570.00
1088.39	2571.00
1089.11	2581.00
1089.82	2563.00
1090.54	2578.00
1091.25	2575.00
1091.96	2568.00
1092.68	2576.00
1093.39	2581.00
1094.10	2574.00
1094.82	2574.00
1095.53	2577.00
1096.24	2576.00
1096.96	2575.00
1097.67	2578.00
1098.38	2575.00
1099.10	2571.00
1099.81	2582.00
1100.52	2576.00
1101.23	2577.00
1101.95	2582.00
1102.66	2576.00
1103.37	2571.00
1104.08	2578.00
1104.80	2577.00
1105.51	2584.00
1106.22	2586.00
1106.93	2572.00
1107.64	2568.00
1108.36	2587.00
1109.07	2578.00
1109.78	2574.00
1110.49	2567.00
1111.20	2577.00
1111.91	2582.00
1112.63	2572.00
1113.34	2573.00
1114.05	2577.00
1114.76	2574.00
1115.47	2574.00
1116.18	2576.00
1116.89	2487.00
1117.60	2491.00
1118.31	2479.00
1119.02	2484.00
1119.73	2559.00
1120.44	2560.00
1121.16	2557.00
1121.87	2559.00
1122.58	2559.00
1123.29	2557.00
1124.00	2567.00
1124.71	2564.00
1125.42	2581.00
1126.12	2594.00
1126.83	2573.00
1127.54	2579.00
1128.25	2488.00
1128.96	2490.00
1129.67	2493.00
1130.38	2508.00
