SpectraSuite Data File
++++++++++++++++++++++++++++++++++++
Date: Thu Nov 14 15:41:42 CET 2019
User: fiberoptics
Dark Spectrum Present: No
Reference Spectrum Present: No
Number of Sampled Component Spectra: 1
Spectrometers: QEPB0198
Integration Time (usec): 100000 (QEPB0198)
Spectra Averaged: 1 (QEPB0198)
Boxcar Smoothing: 0 (QEPB0198)
Correct for Electrical Dark: No (QEPB0198)
Strobe/Lamp Enabled: No (QEPB0198)
Correct for Detector Non-linearity: No (QEPB0198)
Correct for Stray Light: No (QEPB0198)
Number of Pixels in Processed Spectrum: 1044
>>>>>Begin Processed Spectral Data<<<<<
348.19	2551.00
348.97	2543.00
349.76	2550.00
350.55	2545.00
351.34	2547.00
352.12	2549.00
352.91	2551.00
353.70	2553.00
354.48	2550.00
355.27	2543.00
356.06	2553.00
356.84	2553.00
357.63	2558.00
358.42	2559.00
359.20	2565.00
359.99	2561.00
360.77	2554.00
361.56	2552.00
362.35	2554.00
363.13	2559.00
363.92	2561.00
364.70	2561.00
365.49	2557.00
366.28	2566.00
367.06	2559.00
367.85	2568.00
368.63	2564.00
369.42	2568.00
370.20	2565.00
370.99	2571.00
371.77	2571.00
372.56	2567.00
373.35	2567.00
374.13	2578.00
374.92	2574.00
375.70	2582.00
376.49	2578.00
377.27	2586.00
378.06	2584.00
378.84	2592.00
379.62	2595.00
380.41	2602.00
381.19	2611.00
381.98	2613.00
382.76	2611.00
383.55	2611.00
384.33	2631.00
385.12	2636.00
385.90	2646.00
386.68	2651.00
387.47	2658.00
388.25	2670.00
389.04	2679.00
389.82	2700.00
390.60	2709.00
391.39	2710.00
392.17	2723.00
392.95	2732.00
393.74	2765.00
394.52	2770.00
395.30	2789.00
396.09	2806.00
396.87	2832.00
397.65	2859.00
398.44	2880.00
399.22	2928.00
400.00	2953.00
400.79	3001.00
401.57	3046.00
402.35	3107.00
403.13	3182.00
403.92	3253.00
404.70	3346.00
405.48	3443.00
406.26	3587.00
407.05	3722.00
407.83	3874.00
408.61	4066.00
409.39	4265.00
410.18	4512.00
410.96	4765.00
411.74	5048.00
412.52	5377.00
413.30	5750.00
414.08	6165.00
414.87	6580.00
415.65	7075.00
416.43	7598.00
417.21	8186.00
417.99	8821.00
418.77	9486.00
419.56	10195.00
420.34	10990.00
421.12	11802.00
421.90	12719.00
422.68	13661.00
423.46	14625.00
424.24	15667.00
425.02	16720.00
425.80	17857.00
426.58	19005.00
427.36	20116.00
428.14	21324.00
428.93	22549.00
429.71	23749.00
430.49	25040.00
431.27	26302.00
432.05	27610.00
432.83	28797.00
433.61	30008.00
434.39	31180.00
435.17	32413.00
435.95	33553.00
436.73	34727.00
437.51	35860.00
438.29	36797.00
439.07	37870.00
439.85	38889.00
440.62	39917.00
441.40	40754.00
442.18	41861.00
442.96	42739.00
443.74	43601.00
444.52	44448.00
445.30	45170.00
446.08	45958.00
446.86	46531.00
447.64	46988.00
448.42	47411.00
449.19	47510.00
449.97	47533.00
450.75	47283.00
451.53	46889.00
452.31	46254.00
453.09	45386.00
453.87	44513.00
454.64	43314.00
455.42	41882.00
456.20	40643.00
456.98	39167.00
457.76	37575.00
458.53	36113.00
459.31	34582.00
460.09	33175.00
460.87	31726.00
461.65	30398.00
462.42	29222.00
463.20	28065.00
463.98	27019.00
464.76	26036.00
465.53	25075.00
466.31	24283.00
467.09	23344.00
467.86	22611.00
468.64	21867.00
469.42	21223.00
470.20	20490.00
470.97	19858.00
471.75	19196.00
472.53	18690.00
473.30	18078.00
474.08	17635.00
474.86	17064.00
475.63	16651.00
476.41	16179.00
477.18	15765.00
477.96	15408.00
478.74	15084.00
479.51	14834.00
480.29	14611.00
481.07	14365.00
481.84	14211.00
482.62	14026.00
483.39	13917.00
484.17	13886.00
484.94	13820.00
485.72	13770.00
486.50	13831.00
487.27	13831.00
488.05	13896.00
488.82	13996.00
489.60	14085.00
490.37	14228.00
491.15	14431.00
491.92	14599.00
492.70	14855.00
493.47	15022.00
494.25	15328.00
495.02	15627.00
495.80	15924.00
496.57	16256.00
497.35	16637.00
498.12	17041.00
498.89	17433.00
499.67	17914.00
500.44	18340.00
501.22	18773.00
501.99	19261.00
502.77	19791.00
503.54	20296.00
504.31	20824.00
505.09	21390.00
505.86	21892.00
506.63	22497.00
507.41	22982.00
508.18	23576.00
508.96	24117.00
509.73	24664.00
510.50	25173.00
511.28	25720.00
512.05	26259.00
512.82	26814.00
513.59	27294.00
514.37	27794.00
515.14	28246.00
515.91	28805.00
516.69	29232.00
517.46	29560.00
518.23	30124.00
519.00	30561.00
519.78	30986.00
520.55	31378.00
521.32	31838.00
522.09	32191.00
522.87	32525.00
523.64	33066.00
524.41	33432.00
525.18	33742.00
525.95	34121.00
526.73	34480.00
527.50	34747.00
528.27	35119.00
529.04	35351.00
529.81	35572.00
530.59	35834.00
531.36	36188.00
532.13	36311.00
532.90	36614.00
533.67	36829.00
534.44	37016.00
535.21	37248.00
535.98	37472.00
536.76	37567.00
537.53	37789.00
538.30	37980.00
539.07	38107.00
539.84	38163.00
540.61	38363.00
541.38	38472.00
542.15	38667.00
542.92	38765.00
543.69	38837.00
544.46	38936.00
545.23	39033.00
546.00	39057.00
546.77	39137.00
547.54	39190.00
548.31	39250.00
549.08	39344.00
549.85	39340.00
550.62	39438.00
551.39	39433.00
552.16	39536.00
552.93	39498.00
553.70	39575.00
554.47	39600.00
555.24	39606.00
556.01	39626.00
556.78	39570.00
557.55	39494.00
558.32	39552.00
559.09	39468.00
559.85	39469.00
560.62	39405.00
561.39	39441.00
562.16	39384.00
562.93	39323.00
563.70	39326.00
564.47	39227.00
565.23	39201.00
566.00	39077.00
566.77	39144.00
567.54	39032.00
568.31	38929.00
569.08	38902.00
569.84	38818.00
570.61	38704.00
571.38	38617.00
572.15	38502.00
572.92	38489.00
573.68	38330.00
574.45	38215.00
575.22	38129.00
575.99	38053.00
576.75	38004.00
577.52	37802.00
578.29	37735.00
579.05	37568.00
579.82	37376.00
580.59	37231.00
581.36	37066.00
582.12	36902.00
582.89	36762.00
583.66	36636.00
584.42	36489.00
585.19	36250.00
585.96	36150.00
586.72	35860.00
587.49	35674.00
588.26	35545.00
589.02	35322.00
589.79	35059.00
590.55	34855.00
591.32	34586.00
592.09	34393.00
592.85	34122.00
593.62	33898.00
594.38	33667.00
595.15	33340.00
595.91	33198.00
596.68	32931.00
597.45	32743.00
598.21	32434.00
598.98	32166.00
599.74	31954.00
600.51	31772.00
601.27	31495.00
602.04	31275.00
602.80	30999.00
603.57	30758.00
604.33	30517.00
605.10	30308.00
605.86	30059.00
606.63	29793.00
607.39	29554.00
608.15	29276.00
608.92	29090.00
609.68	28829.00
610.45	28592.00
611.21	28332.00
611.98	28144.00
612.74	27918.00
613.50	27696.00
614.27	27439.00
615.03	27149.00
615.80	26922.00
616.56	26712.00
617.32	26445.00
618.09	26240.00
618.85	25936.00
619.61	25689.00
620.38	25461.00
621.14	25162.00
621.90	24872.00
622.67	24628.00
623.43	24369.00
624.19	24128.00
624.96	23862.00
625.72	23585.00
626.48	23378.00
627.24	23102.00
628.01	22793.00
628.77	22538.00
629.53	22283.00
630.29	22118.00
631.06	21841.00
631.82	21585.00
632.58	21350.00
633.34	21129.00
634.10	20907.00
634.87	20626.00
635.63	20435.00
636.39	20193.00
637.15	19967.00
637.91	19744.00
638.68	19473.00
639.44	19200.00
640.20	19009.00
640.96	18745.00
641.72	18571.00
642.48	18337.00
643.24	18082.00
644.00	17884.00
644.77	17654.00
645.53	17413.00
646.29	17231.00
647.05	17003.00
647.81	16779.00
648.57	16571.00
649.33	16394.00
650.09	16178.00
650.85	15937.00
651.61	15755.00
652.37	15529.00
653.13	15386.00
653.89	15121.00
654.65	14944.00
655.41	14697.00
656.17	14516.00
656.93	14294.00
657.69	14105.00
658.45	13868.00
659.21	13705.00
659.97	13438.00
660.73	13178.00
661.49	12967.00
662.25	12796.00
663.01	12607.00
663.77	12322.00
664.53	12162.00
665.29	11949.00
666.05	11728.00
666.80	11557.00
667.56	11331.00
668.32	11093.00
669.08	10920.00
669.84	10710.00
670.60	10553.00
671.36	10381.00
672.11	10217.00
672.87	10078.00
673.63	9933.00
674.39	9799.00
675.15	9686.00
675.91	9529.00
676.66	9453.00
677.42	9355.00
678.18	9274.00
678.94	9185.00
679.69	9102.00
680.45	8986.00
681.21	8955.00
681.97	8882.00
682.73	8795.00
683.48	8712.00
684.24	8639.00
685.00	8555.00
685.75	8512.00
686.51	8473.00
687.27	8363.00
688.02	8256.00
688.78	8227.00
689.54	8147.00
690.30	8093.00
691.05	7992.00
691.81	7909.00
692.56	7835.00
693.32	7763.00
694.08	7692.00
694.83	7596.00
695.59	7516.00
696.35	7463.00
697.10	7359.00
697.86	7290.00
698.61	7212.00
699.37	7127.00
700.13	7049.00
700.88	6970.00
701.64	6890.00
702.39	6792.00
703.15	6710.00
703.90	6627.00
704.66	6581.00
705.41	6491.00
706.17	6408.00
706.92	6333.00
707.68	6252.00
708.43	6177.00
709.19	6100.00
709.94	6052.00
710.70	5994.00
711.45	5915.00
712.21	5830.00
712.96	5786.00
713.72	5758.00
714.47	5669.00
715.22	5592.00
715.98	5526.00
716.73	5467.00
717.49	5410.00
718.24	5329.00
718.99	5270.00
719.75	5214.00
720.50	5176.00
721.26	5096.00
722.01	5050.00
722.76	5029.00
723.52	4966.00
724.27	4941.00
725.02	4894.00
725.78	4821.00
726.53	4802.00
727.28	4757.00
728.03	4712.00
728.79	4676.00
729.54	4644.00
730.29	4621.00
731.05	4573.00
731.80	4533.00
732.55	4515.00
733.30	4488.00
734.06	4427.00
734.81	4404.00
735.56	4379.00
736.31	4347.00
737.06	4297.00
737.82	4278.00
738.57	4255.00
739.32	4235.00
740.07	4195.00
740.82	4168.00
741.58	4145.00
742.33	4128.00
743.08	4099.00
743.83	4066.00
744.58	4076.00
745.33	4028.00
746.08	4019.00
746.84	3996.00
747.59	3976.00
748.34	3936.00
749.09	3926.00
749.84	3920.00
750.59	3902.00
751.34	3877.00
752.09	3860.00
752.84	3852.00
753.59	3831.00
754.34	3809.00
755.09	3787.00
755.84	3769.00
756.59	3750.00
757.34	3722.00
758.09	3709.00
758.84	3707.00
759.59	3709.00
760.34	3666.00
761.09	3665.00
761.84	3645.00
762.59	3639.00
763.34	3613.00
764.09	3604.00
764.84	3587.00
765.59	3568.00
766.34	3538.00
767.09	3535.00
767.84	3533.00
768.58	3503.00
769.33	3478.00
770.08	3456.00
770.83	3458.00
771.58	3452.00
772.33	3418.00
773.08	3411.00
773.83	3391.00
774.57	3373.00
775.32	3374.00
776.07	3344.00
776.82	3331.00
777.57	3301.00
778.31	3298.00
779.06	3284.00
779.81	3268.00
780.56	3257.00
781.31	3235.00
782.05	3222.00
782.80	3219.00
783.55	3189.00
784.30	3192.00
785.04	3171.00
785.79	3150.00
786.54	3147.00
787.28	3145.00
788.03	3114.00
788.78	3116.00
789.52	3090.00
790.27	3082.00
791.02	3071.00
791.76	3055.00
792.51	3046.00
793.26	3044.00
794.00	3021.00
794.75	3031.00
795.50	3007.00
796.24	3001.00
796.99	3004.00
797.73	2976.00
798.48	2988.00
799.23	2957.00
799.97	2958.00
800.72	2935.00
801.46	2936.00
802.21	2932.00
802.95	2930.00
803.70	2917.00
804.45	2908.00
805.19	2901.00
805.94	2887.00
806.68	2884.00
807.43	2889.00
808.17	2866.00
808.92	2860.00
809.66	2862.00
810.40	2852.00
811.15	2842.00
811.89	2837.00
812.64	2837.00
813.38	2826.00
814.13	2825.00
814.87	2809.00
815.62	2804.00
816.36	2810.00
817.10	2790.00
817.85	2794.00
818.59	2785.00
819.34	2778.00
820.08	2769.00
820.82	2767.00
821.57	2757.00
822.31	2762.00
823.05	2767.00
823.80	2746.00
824.54	2756.00
825.28	2745.00
826.03	2739.00
826.77	2731.00
827.51	2725.00
828.25	2735.00
829.00	2723.00
829.74	2716.00
830.48	2714.00
831.23	2713.00
831.97	2706.00
832.71	2705.00
833.45	2696.00
834.19	2693.00
834.94	2696.00
835.68	2689.00
836.42	2690.00
837.16	2682.00
837.90	2683.00
838.65	2682.00
839.39	2676.00
840.13	2672.00
840.87	2668.00
841.61	2664.00
842.35	2671.00
843.10	2663.00
843.84	2658.00
844.58	2660.00
845.32	2653.00
846.06	2649.00
846.80	2659.00
847.54	2650.00
848.28	2646.00
849.02	2639.00
849.76	2638.00
850.50	2632.00
851.24	2635.00
851.99	2631.00
852.73	2637.00
853.47	2633.00
854.21	2628.00
854.95	2631.00
855.69	2629.00
856.43	2621.00
857.17	2619.00
857.91	2618.00
858.64	2616.00
859.38	2612.00
860.12	2618.00
860.86	2616.00
861.60	2608.00
862.34	2605.00
863.08	2603.00
863.82	2600.00
864.56	2601.00
865.30	2610.00
866.04	2612.00
866.78	2594.00
867.52	2594.00
868.25	2593.00
868.99	2594.00
869.73	2592.00
870.47	2583.00
871.21	2596.00
871.95	2585.00
872.68	2604.00
873.42	2586.00
874.16	2585.00
874.90	2588.00
875.64	2582.00
876.37	2589.00
877.11	2583.00
877.85	2581.00
878.59	2584.00
879.32	2577.00
880.06	2578.00
880.80	2580.00
881.54	2576.00
882.27	2569.00
883.01	2572.00
883.75	2579.00
884.48	2575.00
885.22	2577.00
885.96	2576.00
886.70	2569.00
887.43	2572.00
888.17	2571.00
888.90	2566.00
889.64	2568.00
890.38	2571.00
891.11	2578.00
891.85	2572.00
892.59	2567.00
893.32	2572.00
894.06	2566.00
894.79	2566.00
895.53	2564.00
896.27	2563.00
897.00	2560.00
897.74	2563.00
898.47	2567.00
899.21	2568.00
899.94	2562.00
900.68	2561.00
901.41	2557.00
902.15	2560.00
902.88	2557.00
903.62	2548.00
904.35	2553.00
905.09	2580.00
905.82	2556.00
906.56	2561.00
907.29	2561.00
908.03	2550.00
908.76	2551.00
909.49	2549.00
910.23	2552.00
910.96	2556.00
911.70	2558.00
912.43	2554.00
913.16	2557.00
913.90	2552.00
914.63	2552.00
915.37	2547.00
916.10	2551.00
916.83	2554.00
917.57	2547.00
918.30	2548.00
919.03	2550.00
919.77	2552.00
920.50	2557.00
921.23	2548.00
921.97	2553.00
922.70	2550.00
923.43	2558.00
924.16	2545.00
924.90	2547.00
925.63	2552.00
926.36	2547.00
927.09	2558.00
927.83	2547.00
928.56	2549.00
929.29	2542.00
930.02	2561.00
930.75	2555.00
931.49	2558.00
932.22	2550.00
932.95	2554.00
933.68	2544.00
934.41	2552.00
935.14	2543.00
935.88	2548.00
936.61	2545.00
937.34	2551.00
938.07	2551.00
938.80	2543.00
939.53	2544.00
940.26	2548.00
940.99	2555.00
941.72	2545.00
942.46	2549.00
943.19	2547.00
943.92	2543.00
944.65	2542.00
945.38	2551.00
946.11	2547.00
946.84	2548.00
947.57	2547.00
948.30	2547.00
949.03	2542.00
949.76	2543.00
950.49	2550.00
951.22	2544.00
951.95	2546.00
952.68	2549.00
953.41	2544.00
954.14	2545.00
954.86	2541.00
955.59	2536.00
956.32	2551.00
957.05	2537.00
957.78	2544.00
958.51	2545.00
959.24	2540.00
959.97	2544.00
960.70	2539.00
961.43	2536.00
962.15	2548.00
962.88	2542.00
963.61	2538.00
964.34	2545.00
965.07	2542.00
965.80	2539.00
966.52	2540.00
967.25	2533.00
967.98	2539.00
968.71	2537.00
969.43	2538.00
970.16	2535.00
970.89	2531.00
971.62	2536.00
972.34	2532.00
973.07	2536.00
973.80	2534.00
974.53	2531.00
975.25	2537.00
975.98	2540.00
976.71	2534.00
977.43	2531.00
978.16	2533.00
978.89	2529.00
979.61	2530.00
980.34	2533.00
981.07	2537.00
981.79	2531.00
982.52	2534.00
983.25	2538.00
983.97	2529.00
984.70	2527.00
985.42	2534.00
986.15	2530.00
986.88	2534.00
987.60	2533.00
988.33	2526.00
989.05	2531.00
989.78	2528.00
990.50	2538.00
991.23	2534.00
991.95	2538.00
992.68	2534.00
993.40	2538.00
994.13	2540.00
994.85	2531.00
995.58	2536.00
996.30	2529.00
997.03	2534.00
997.75	2537.00
998.48	2535.00
999.20	2540.00
999.93	2526.00
1000.65	2531.00
1001.38	2530.00
1002.10	2533.00
1002.82	2525.00
1003.55	2533.00
1004.27	2531.00
1004.99	2537.00
1005.72	2528.00
1006.44	2533.00
1007.17	2529.00
1007.89	2529.00
1008.61	2537.00
1009.34	2531.00
1010.06	2528.00
1010.78	2534.00
1011.51	2531.00
1012.23	2539.00
1012.95	2534.00
1013.67	2525.00
1014.40	2534.00
1015.12	2533.00
1015.84	2535.00
1016.56	2529.00
1017.29	2531.00
1018.01	2540.00
1018.73	2537.00
1019.45	2531.00
1020.18	2531.00
1020.90	2536.00
1021.62	2531.00
1022.34	2524.00
1023.06	2535.00
1023.78	2553.00
1024.51	2528.00
1025.23	2529.00
1025.95	2537.00
1026.67	2535.00
1027.39	2529.00
1028.11	2535.00
1028.83	2536.00
1029.55	2537.00
1030.28	2539.00
1031.00	2529.00
1031.72	2538.00
1032.44	2542.00
1033.16	2533.00
1033.88	2534.00
1034.60	2537.00
1035.32	2534.00
1036.04	2542.00
1036.76	2536.00
1037.48	2531.00
1038.20	2533.00
1038.92	2530.00
1039.64	2536.00
1040.36	2530.00
1041.08	2536.00
1041.80	2537.00
1042.52	2530.00
1043.24	2536.00
1043.96	2536.00
1044.68	2541.00
1045.40	2537.00
1046.11	2540.00
1046.83	2535.00
1047.55	2541.00
1048.27	2539.00
1048.99	2536.00
1049.71	2538.00
1050.43	2540.00
1051.15	2533.00
1051.86	2546.00
1052.58	2539.00
1053.30	2544.00
1054.02	2540.00
1054.74	2548.00
1055.45	2550.00
1056.17	2545.00
1056.89	2527.00
1057.61	2536.00
1058.33	2541.00
1059.04	2543.00
1059.76	2539.00
1060.48	2532.00
1061.20	2537.00
1061.91	2539.00
1062.63	2540.00
1063.35	2533.00
1064.06	2539.00
1064.78	2533.00
1065.50	2538.00
1066.22	2537.00
1066.93	2539.00
1067.65	2538.00
1068.36	2539.00
1069.08	2535.00
1069.80	2538.00
1070.51	2541.00
1071.23	2543.00
1071.95	2541.00
1072.66	2538.00
1073.38	2544.00
1074.09	2549.00
1074.81	2541.00
1075.53	2546.00
1076.24	2543.00
1076.96	2545.00
1077.67	2552.00
1078.39	2546.00
1079.10	2551.00
1079.82	2553.00
1080.53	2553.00
1081.25	2556.00
1081.96	2556.00
1082.68	2554.00
1083.39	2546.00
1084.11	2551.00
1084.82	2548.00
1085.54	2559.00
1086.25	2560.00
1086.97	2554.00
1087.68	2560.00
1088.39	2560.00
1089.11	2564.00
1089.82	2557.00
1090.54	2563.00
1091.25	2564.00
1091.96	2562.00
1092.68	2567.00
1093.39	2571.00
1094.10	2563.00
1094.82	2563.00
1095.53	2569.00
1096.24	2570.00
1096.96	2564.00
1097.67	2562.00
1098.38	2568.00
1099.10	2560.00
1099.81	2572.00
1100.52	2566.00
1101.23	2563.00
1101.95	2573.00
1102.66	2563.00
1103.37	2563.00
1104.08	2567.00
1104.80	2566.00
1105.51	2568.00
1106.22	2575.00
1106.93	2560.00
1107.64	2560.00
1108.36	2579.00
1109.07	2564.00
1109.78	2561.00
1110.49	2560.00
1111.20	2568.00
1111.91	2570.00
1112.63	2559.00
1113.34	2560.00
1114.05	2569.00
1114.76	2563.00
1115.47	2566.00
1116.18	2568.00
1116.89	2486.00
1117.60	2482.00
1118.31	2477.00
1119.02	2481.00
1119.73	2548.00
1120.44	2554.00
1121.16	2548.00
1121.87	2545.00
1122.58	2546.00
1123.29	2548.00
1124.00	2561.00
1124.71	2560.00
1125.42	2573.00
1126.12	2582.00
1126.83	2563.00
1127.54	2568.00
1128.25	2486.00
1128.96	2482.00
1129.67	2491.00
1130.38	2501.00