SpectraSuite Data File
++++++++++++++++++++++++++++++++++++
Date: Thu Nov 14 15:49:30 CET 2019
User: fiberoptics
Dark Spectrum Present: No
Reference Spectrum Present: No
Number of Sampled Component Spectra: 1
Spectrometers: QEPB0198
Integration Time (usec): 100000 (QEPB0198)
Spectra Averaged: 1 (QEPB0198)
Boxcar Smoothing: 0 (QEPB0198)
Correct for Electrical Dark: No (QEPB0198)
Strobe/Lamp Enabled: No (QEPB0198)
Correct for Detector Non-linearity: No (QEPB0198)
Correct for Stray Light: No (QEPB0198)
Number of Pixels in Processed Spectrum: 1044
>>>>>Begin Processed Spectral Data<<<<<
348.19	2549.00
348.97	2537.00
349.76	2545.00
350.55	2543.00
351.34	2543.00
352.12	2542.00
352.91	2547.00
353.70	2549.00
354.48	2542.00
355.27	2545.00
356.06	2547.00
356.84	2546.00
357.63	2552.00
358.42	2557.00
359.20	2561.00
359.99	2559.00
360.77	2552.00
361.56	2545.00
362.35	2548.00
363.13	2550.00
363.92	2560.00
364.70	2552.00
365.49	2555.00
366.28	2556.00
367.06	2555.00
367.85	2558.00
368.63	2557.00
369.42	2559.00
370.20	2558.00
370.99	2562.00
371.77	2559.00
372.56	2562.00
373.35	2559.00
374.13	2572.00
374.92	2565.00
375.70	2572.00
376.49	2572.00
377.27	2581.00
378.06	2579.00
378.84	2577.00
379.62	2585.00
380.41	2592.00
381.19	2595.00
381.98	2597.00
382.76	2597.00
383.55	2597.00
384.33	2610.00
385.12	2617.00
385.90	2626.00
386.68	2631.00
387.47	2629.00
388.25	2648.00
389.04	2654.00
389.82	2672.00
390.60	2675.00
391.39	2669.00
392.17	2682.00
392.95	2698.00
393.74	2711.00
394.52	2718.00
395.30	2741.00
396.09	2762.00
396.87	2771.00
397.65	2797.00
398.44	2814.00
399.22	2840.00
400.00	2868.00
400.79	2900.00
401.57	2938.00
402.35	2986.00
403.13	3033.00
403.92	3099.00
404.70	3164.00
405.48	3255.00
406.26	3354.00
407.05	3449.00
407.83	3567.00
408.61	3715.00
409.39	3879.00
410.18	4065.00
410.96	4243.00
411.74	4468.00
412.52	4731.00
413.30	5006.00
414.08	5317.00
414.87	5638.00
415.65	6015.00
416.43	6427.00
417.21	6898.00
417.99	7338.00
418.77	7856.00
419.56	8407.00
420.34	8987.00
421.12	9592.00
421.90	10277.00
422.68	10944.00
423.46	11672.00
424.24	12426.00
425.02	13214.00
425.80	14026.00
426.58	14832.00
427.36	15729.00
428.14	16605.00
428.93	17488.00
429.71	18426.00
430.49	19313.00
431.27	20157.00
432.05	21085.00
432.83	21980.00
433.61	22787.00
434.39	23615.00
435.17	24436.00
435.95	25173.00
436.73	26031.00
437.51	26760.00
438.29	27548.00
439.07	28229.00
439.85	28831.00
440.62	29546.00
441.40	30232.00
442.18	30823.00
442.96	31485.00
443.74	32119.00
444.52	32735.00
445.30	33203.00
446.08	33680.00
446.86	34122.00
447.64	34518.00
448.42	34748.00
449.19	34869.00
449.97	34822.00
450.75	34647.00
451.53	34334.00
452.31	33830.00
453.09	33276.00
453.87	32556.00
454.64	31662.00
455.42	30787.00
456.20	29751.00
456.98	28753.00
457.76	27650.00
458.53	26540.00
459.31	25550.00
460.09	24480.00
460.87	23492.00
461.65	22620.00
462.42	21761.00
463.20	20907.00
463.98	20153.00
464.76	19445.00
465.53	18818.00
466.31	18251.00
467.09	17699.00
467.86	17085.00
468.64	16610.00
469.42	16122.00
470.20	15688.00
470.97	15253.00
471.75	14817.00
472.53	14372.00
473.30	14025.00
474.08	13674.00
474.86	13319.00
475.63	13005.00
476.41	12736.00
477.18	12438.00
477.96	12218.00
478.74	11998.00
479.51	11849.00
480.29	11669.00
481.07	11530.00
481.84	11438.00
482.62	11361.00
483.39	11324.00
484.17	11298.00
484.94	11251.00
485.72	11313.00
486.50	11322.00
487.27	11426.00
488.05	11468.00
488.82	11604.00
489.60	11727.00
490.37	11835.00
491.15	12067.00
491.92	12266.00
492.70	12419.00
493.47	12696.00
494.25	12958.00
495.02	13223.00
495.80	13523.00
496.57	13818.00
497.35	14165.00
498.12	14605.00
498.89	14938.00
499.67	15389.00
500.44	15787.00
501.22	16244.00
501.99	16744.00
502.77	17248.00
503.54	17670.00
504.31	18208.00
505.09	18704.00
505.86	19229.00
506.63	19760.00
507.41	20323.00
508.18	20885.00
508.96	21369.00
509.73	21974.00
510.50	22514.00
511.28	23107.00
512.05	23696.00
512.82	24099.00
513.59	24655.00
514.37	25181.00
515.14	25764.00
515.91	26265.00
516.69	26695.00
517.46	27244.00
518.23	27727.00
519.00	28188.00
519.78	28702.00
520.55	29085.00
521.32	29523.00
522.09	30061.00
522.87	30519.00
523.64	30923.00
524.41	31325.00
525.18	31775.00
525.95	32128.00
526.73	32489.00
527.50	32899.00
528.27	33325.00
529.04	33668.00
529.81	33978.00
530.59	34299.00
531.36	34556.00
532.13	34996.00
532.90	35282.00
533.67	35460.00
534.44	35794.00
535.21	36036.00
535.98	36377.00
536.76	36578.00
537.53	36775.00
538.30	37073.00
539.07	37277.00
539.84	37437.00
540.61	37624.00
541.38	37857.00
542.15	38006.00
542.92	38175.00
543.69	38369.00
544.46	38489.00
545.23	38606.00
546.00	38811.00
546.77	38890.00
547.54	38992.00
548.31	39131.00
549.08	39266.00
549.85	39386.00
550.62	39503.00
551.39	39601.00
552.16	39686.00
552.93	39654.00
553.70	39784.00
554.47	39817.00
555.24	39878.00
556.01	39921.00
556.78	39941.00
557.55	40038.00
558.32	40075.00
559.09	40093.00
559.85	40032.00
560.62	39987.00
561.39	40002.00
562.16	40101.00
562.93	39974.00
563.70	40085.00
564.47	40065.00
565.23	40019.00
566.00	40076.00
566.77	39968.00
567.54	39961.00
568.31	39940.00
569.08	39860.00
569.84	39829.00
570.61	39681.00
571.38	39632.00
572.15	39621.00
572.92	39633.00
573.68	39500.00
574.45	39381.00
575.22	39343.00
575.99	39268.00
576.75	39157.00
577.52	39120.00
578.29	38991.00
579.05	38978.00
579.82	38808.00
580.59	38708.00
581.36	38598.00
582.12	38494.00
582.89	38424.00
583.66	38410.00
584.42	38251.00
585.19	38201.00
585.96	38149.00
586.72	38007.00
587.49	37896.00
588.26	37915.00
589.02	37849.00
589.79	37783.00
590.55	37760.00
591.32	37589.00
592.09	37586.00
592.85	37426.00
593.62	37326.00
594.38	37253.00
595.15	37214.00
595.91	37156.00
596.68	37016.00
597.45	36912.00
598.21	36748.00
598.98	36646.00
599.74	36522.00
600.51	36481.00
601.27	36324.00
602.04	36266.00
602.80	35990.00
603.57	35850.00
604.33	35678.00
605.10	35478.00
605.86	35329.00
606.63	35121.00
607.39	34885.00
608.15	34725.00
608.92	34471.00
609.68	34300.00
610.45	34089.00
611.21	33755.00
611.98	33536.00
612.74	33353.00
613.50	33079.00
614.27	32838.00
615.03	32515.00
615.80	32239.00
616.56	31985.00
617.32	31683.00
618.09	31375.00
618.85	31063.00
619.61	30841.00
620.38	30620.00
621.14	30246.00
621.90	29975.00
622.67	29671.00
623.43	29380.00
624.19	28971.00
624.96	28720.00
625.72	28428.00
626.48	28081.00
627.24	27741.00
628.01	27512.00
628.77	27106.00
629.53	26802.00
630.29	26496.00
631.06	26182.00
631.82	25919.00
632.58	25678.00
633.34	25324.00
634.10	25049.00
634.87	24780.00
635.63	24422.00
636.39	24205.00
637.15	23886.00
637.91	23592.00
638.68	23311.00
639.44	23049.00
640.20	22777.00
640.96	22443.00
641.72	22187.00
642.48	21849.00
643.24	21565.00
644.00	21254.00
644.77	21064.00
645.53	20752.00
646.29	20480.00
647.05	20239.00
647.81	19941.00
648.57	19670.00
649.33	19391.00
650.09	19097.00
650.85	18850.00
651.61	18592.00
652.37	18343.00
653.13	18084.00
653.89	17830.00
654.65	17540.00
655.41	17307.00
656.17	17056.00
656.93	16820.00
657.69	16579.00
658.45	16290.00
659.21	16093.00
659.97	15752.00
660.73	15520.00
661.49	15255.00
662.25	15039.00
663.01	14774.00
663.77	14497.00
664.53	14273.00
665.29	14042.00
666.05	13740.00
666.80	13562.00
667.56	13336.00
668.32	13099.00
669.08	12861.00
669.84	12599.00
670.60	12425.00
671.36	12185.00
672.11	11974.00
672.87	11792.00
673.63	11609.00
674.39	11429.00
675.15	11246.00
675.91	11123.00
676.66	10934.00
677.42	10826.00
678.18	10693.00
678.94	10586.00
679.69	10422.00
680.45	10344.00
681.21	10258.00
681.97	10130.00
682.73	10000.00
683.48	9889.00
684.24	9819.00
685.00	9738.00
685.75	9588.00
686.51	9494.00
687.27	9417.00
688.02	9301.00
688.78	9250.00
689.54	9161.00
690.30	9053.00
691.05	8945.00
691.81	8839.00
692.56	8769.00
693.32	8666.00
694.08	8568.00
694.83	8482.00
695.59	8381.00
696.35	8276.00
697.10	8200.00
697.86	8036.00
698.61	7968.00
699.37	7872.00
700.13	7801.00
700.88	7699.00
701.64	7595.00
702.39	7502.00
703.15	7427.00
703.90	7336.00
704.66	7230.00
705.41	7108.00
706.17	7057.00
706.92	6947.00
707.68	6850.00
708.43	6793.00
709.19	6695.00
709.94	6637.00
710.70	6557.00
711.45	6473.00
712.21	6385.00
712.96	6308.00
713.72	6256.00
714.47	6170.00
715.22	6112.00
715.98	6019.00
716.73	5935.00
717.49	5864.00
718.24	5791.00
718.99	5734.00
719.75	5632.00
720.50	5581.00
721.26	5507.00
722.01	5450.00
722.76	5395.00
723.52	5339.00
724.27	5265.00
725.02	5222.00
725.78	5155.00
726.53	5098.00
727.28	5064.00
728.03	5031.00
728.79	4992.00
729.54	4920.00
730.29	4878.00
731.05	4851.00
731.80	4776.00
732.55	4748.00
733.30	4729.00
734.06	4676.00
734.81	4623.00
735.56	4575.00
736.31	4547.00
737.06	4506.00
737.82	4482.00
738.57	4433.00
739.32	4405.00
740.07	4359.00
740.82	4311.00
741.58	4298.00
742.33	4262.00
743.08	4235.00
743.83	4197.00
744.58	4163.00
745.33	4144.00
746.08	4113.00
746.84	4070.00
747.59	4066.00
748.34	4024.00
749.09	3991.00
749.84	3941.00
750.59	3930.00
751.34	3903.00
752.09	3882.00
752.84	3832.00
753.59	3822.00
754.34	3803.00
755.09	3759.00
755.84	3742.00
756.59	3713.00
757.34	3703.00
758.09	3665.00
758.84	3664.00
759.59	3650.00
760.34	3600.00
761.09	3588.00
761.84	3577.00
762.59	3555.00
763.34	3544.00
764.09	3518.00
764.84	3507.00
765.59	3478.00
766.34	3458.00
767.09	3437.00
767.84	3427.00
768.58	3401.00
769.33	3371.00
770.08	3375.00
770.83	3356.00
771.58	3341.00
772.33	3330.00
773.08	3312.00
773.83	3301.00
774.57	3264.00
775.32	3261.00
776.07	3253.00
776.82	3232.00
777.57	3213.00
778.31	3196.00
779.06	3176.00
779.81	3170.00
780.56	3157.00
781.31	3148.00
782.05	3134.00
782.80	3127.00
783.55	3109.00
784.30	3098.00
785.04	3081.00
785.79	3056.00
786.54	3068.00
787.28	3065.00
788.03	3046.00
788.78	3034.00
789.52	3030.00
790.27	3011.00
791.02	3003.00
791.76	2993.00
792.51	2985.00
793.26	2974.00
794.00	2966.00
794.75	2968.00
795.50	2947.00
796.24	2937.00
796.99	2935.00
797.73	2929.00
798.48	2927.00
799.23	2914.00
799.97	2904.00
800.72	2895.00
801.46	2888.00
802.21	2880.00
802.95	2877.00
803.70	2870.00
804.45	2868.00
805.19	2855.00
805.94	2837.00
806.68	2845.00
807.43	2854.00
808.17	2861.00
808.92	2860.00
809.66	2856.00
810.40	2847.00
811.15	2848.00
811.89	2830.00
812.64	2830.00
813.38	2808.00
814.13	2804.00
814.87	2783.00
815.62	2776.00
816.36	2763.00
817.10	2762.00
817.85	2756.00
818.59	2755.00
819.34	2749.00
820.08	2748.00
820.82	2734.00
821.57	2740.00
822.31	2733.00
823.05	2743.00
823.80	2724.00
824.54	2725.00
825.28	2715.00
826.03	2715.00
826.77	2714.00
827.51	2707.00
828.25	2715.00
829.00	2702.00
829.74	2697.00
830.48	2686.00
831.23	2677.00
831.97	2683.00
832.71	2671.00
833.45	2665.00
834.19	2676.00
834.94	2676.00
835.68	2671.00
836.42	2671.00
837.16	2672.00
837.90	2681.00
838.65	2686.00
839.39	2693.00
840.13	2685.00
840.87	2683.00
841.61	2673.00
842.35	2683.00
843.10	2667.00
843.84	2661.00
844.58	2657.00
845.32	2641.00
846.06	2635.00
846.80	2640.00
847.54	2632.00
848.28	2641.00
849.02	2629.00
849.76	2633.00
850.50	2629.00
851.24	2636.00
851.99	2622.00
852.73	2624.00
853.47	2621.00
854.21	2622.00
854.95	2619.00
855.69	2614.00
856.43	2608.00
857.17	2599.00
857.91	2606.00
858.64	2610.00
859.38	2599.00
860.12	2603.00
860.86	2595.00
861.60	2595.00
862.34	2590.00
863.08	2586.00
863.82	2587.00
864.56	2589.00
865.30	2602.00
866.04	2600.00
866.78	2586.00
867.52	2583.00
868.25	2586.00
868.99	2579.00
869.73	2584.00
870.47	2578.00
871.21	2584.00
871.95	2576.00
872.68	2591.00
873.42	2579.00
874.16	2571.00
874.90	2575.00
875.64	2575.00
876.37	2576.00
877.11	2571.00
877.85	2568.00
878.59	2570.00
879.32	2569.00
880.06	2570.00
880.80	2579.00
881.54	2565.00
882.27	2565.00
883.01	2560.00
883.75	2572.00
884.48	2564.00
885.22	2570.00
885.96	2568.00
886.70	2562.00
887.43	2567.00
888.17	2566.00
888.90	2559.00
889.64	2562.00
890.38	2563.00
891.11	2571.00
891.85	2561.00
892.59	2561.00
893.32	2569.00
894.06	2561.00
894.79	2559.00
895.53	2558.00
896.27	2560.00
897.00	2559.00
897.74	2557.00
898.47	2563.00
899.21	2560.00
899.94	2560.00
900.68	2557.00
901.41	2552.00
902.15	2559.00
902.88	2551.00
903.62	2544.00
904.35	2549.00
905.09	2576.00
905.82	2557.00
906.56	2559.00
907.29	2557.00
908.03	2552.00
908.76	2558.00
909.49	2561.00
910.23	2559.00
910.96	2565.00
911.70	2568.00
912.43	2560.00
913.16	2563.00
913.90	2557.00
914.63	2559.00
915.37	2555.00
916.10	2553.00
916.83	2548.00
917.57	2546.00
918.30	2546.00
919.03	2553.00
919.77	2556.00
920.50	2553.00
921.23	2548.00
921.97	2555.00
922.70	2556.00
923.43	2554.00
924.16	2548.00
924.90	2547.00
925.63	2550.00
926.36	2547.00
927.09	2554.00
927.83	2544.00
928.56	2550.00
929.29	2544.00
930.02	2552.00
930.75	2551.00
931.49	2552.00
932.22	2546.00
932.95	2555.00
933.68	2544.00
934.41	2547.00
935.14	2541.00
935.88	2549.00
936.61	2548.00
937.34	2545.00
938.07	2549.00
938.80	2541.00
939.53	2542.00
940.26	2547.00
940.99	2558.00
941.72	2546.00
942.46	2545.00
943.19	2546.00
943.92	2544.00
944.65	2537.00
945.38	2552.00
946.11	2544.00
946.84	2547.00
947.57	2547.00
948.30	2546.00
949.03	2545.00
949.76	2538.00
950.49	2547.00
951.22	2543.00
951.95	2547.00
952.68	2547.00
953.41	2539.00
954.14	2546.00
954.86	2539.00
955.59	2537.00
956.32	2547.00
957.05	2535.00
957.78	2548.00
958.51	2547.00
959.24	2545.00
959.97	2545.00
960.70	2540.00
961.43	2544.00
962.15	2546.00
962.88	2546.00
963.61	2548.00
964.34	2547.00
965.07	2547.00
965.80	2544.00
966.52	2546.00
967.25	2536.00
967.98	2542.00
968.71	2541.00
969.43	2535.00
970.16	2539.00
970.89	2535.00
971.62	2538.00
972.34	2530.00
973.07	2537.00
973.80	2537.00
974.53	2532.00
975.25	2543.00
975.98	2539.00
976.71	2531.00
977.43	2534.00
978.16	2532.00
978.89	2527.00
979.61	2528.00
980.34	2530.00
981.07	2536.00
981.79	2535.00
982.52	2536.00
983.25	2538.00
983.97	2530.00
984.70	2527.00
985.42	2535.00
986.15	2530.00
986.88	2535.00
987.60	2530.00
988.33	2524.00
989.05	2532.00
989.78	2530.00
990.50	2537.00
991.23	2534.00
991.95	2538.00
992.68	2534.00
993.40	2535.00
994.13	2535.00
994.85	2532.00
995.58	2541.00
996.30	2529.00
997.03	2534.00
997.75	2538.00
998.48	2529.00
999.20	2537.00
999.93	2531.00
1000.65	2528.00
1001.38	2535.00
1002.10	2530.00
1002.82	2522.00
1003.55	2532.00
1004.27	2533.00
1004.99	2533.00
1005.72	2529.00
1006.44	2531.00
1007.17	2532.00
1007.89	2529.00
1008.61	2530.00
1009.34	2533.00
1010.06	2529.00
1010.78	2533.00
1011.51	2525.00
1012.23	2538.00
1012.95	2530.00
1013.67	2530.00
1014.40	2534.00
1015.12	2530.00
1015.84	2536.00
1016.56	2534.00
1017.29	2532.00
1018.01	2534.00
1018.73	2541.00
1019.45	2530.00
1020.18	2525.00
1020.90	2539.00
1021.62	2530.00
1022.34	2531.00
1023.06	2534.00
1023.78	2546.00
1024.51	2528.00
1025.23	2530.00
1025.95	2534.00
1026.67	2538.00
1027.39	2534.00
1028.11	2534.00
1028.83	2534.00
1029.55	2531.00
1030.28	2542.00
1031.00	2534.00
1031.72	2543.00
1032.44	2536.00
1033.16	2533.00
1033.88	2536.00
1034.60	2536.00
1035.32	2537.00
1036.04	2539.00
1036.76	2536.00
1037.48	2532.00
1038.20	2539.00
1038.92	2531.00
1039.64	2539.00
1040.36	2528.00
1041.08	2538.00
1041.80	2540.00
1042.52	2529.00
1043.24	2535.00
1043.96	2534.00
1044.68	2542.00
1045.40	2541.00
1046.11	2542.00
1046.83	2535.00
1047.55	2542.00
1048.27	2530.00
1048.99	2538.00
1049.71	2542.00
1050.43	2541.00
1051.15	2530.00
1051.86	2551.00
1052.58	2537.00
1053.30	2540.00
1054.02	2536.00
1054.74	2549.00
1055.45	2553.00
1056.17	2541.00
1056.89	2534.00
1057.61	2539.00
1058.33	2544.00
1059.04	2543.00
1059.76	2540.00
1060.48	2536.00
1061.20	2536.00
1061.91	2537.00
1062.63	2538.00
1063.35	2537.00
1064.06	2539.00
1064.78	2541.00
1065.50	2537.00
1066.22	2542.00
1066.93	2544.00
1067.65	2541.00
1068.36	2540.00
1069.08	2541.00
1069.80	2544.00
1070.51	2541.00
1071.23	2545.00
1071.95	2548.00
1072.66	2547.00
1073.38	2546.00
1074.09	2547.00
1074.81	2544.00
1075.53	2544.00
1076.24	2548.00
1076.96	2555.00
1077.67	2557.00
1078.39	2553.00
1079.10	2551.00
1079.82	2557.00
1080.53	2561.00
1081.25	2557.00
1081.96	2560.00
1082.68	2558.00
1083.39	2552.00
1084.11	2559.00
1084.82	2554.00
1085.54	2565.00
1086.25	2560.00
1086.97	2562.00
1087.68	2570.00
1088.39	2567.00
1089.11	2577.00
1089.82	2564.00
1090.54	2574.00
1091.25	2571.00
1091.96	2567.00
1092.68	2574.00
1093.39	2572.00
1094.10	2566.00
1094.82	2577.00
1095.53	2570.00
1096.24	2573.00
1096.96	2571.00
1097.67	2573.00
1098.38	2573.00
1099.10	2571.00
1099.81	2576.00
1100.52	2574.00
1101.23	2574.00
1101.95	2577.00
1102.66	2569.00
1103.37	2567.00
1104.08	2572.00
1104.80	2572.00
1105.51	2573.00
1106.22	2581.00
1106.93	2573.00
1107.64	2565.00
1108.36	2581.00
1109.07	2573.00
1109.78	2572.00
1110.49	2567.00
1111.20	2572.00
1111.91	2573.00
1112.63	2573.00
1113.34	2568.00
1114.05	2570.00
1114.76	2569.00
1115.47	2570.00
1116.18	2576.00
1116.89	2487.00
1117.60	2485.00
1118.31	2479.00
1119.02	2482.00
1119.73	2545.00
1120.44	2546.00
1121.16	2541.00
1121.87	2541.00
1122.58	2545.00
1123.29	2538.00
1124.00	2567.00
1124.71	2566.00
1125.42	2576.00
1126.12	2587.00
1126.83	2571.00
1127.54	2568.00
1128.25	2483.00
1128.96	2489.00
1129.67	2490.00
1130.38	2503.00