SpectraSuite Data File
++++++++++++++++++++++++++++++++++++
Date: Sat Dec 14 18:55:20 CET 2019
User: fiberoptics
Dark Spectrum Present: No
Reference Spectrum Present: No
Number of Sampled Component Spectra: 1
Spectrometers: QEPB0198
Integration Time (usec): 100000 (QEPB0198)
Spectra Averaged: 1 (QEPB0198)
Boxcar Smoothing: 0 (QEPB0198)
Correct for Electrical Dark: No (QEPB0198)
Strobe/Lamp Enabled: No (QEPB0198)
Correct for Detector Non-linearity: No (QEPB0198)
Correct for Stray Light: No (QEPB0198)
Number of Pixels in Processed Spectrum: 1044
>>>>>Begin Processed Spectral Data<<<<<
348.19	2544.00
348.97	2536.00
349.76	2546.00
350.55	2539.00
351.34	2537.00
352.12	2545.00
352.91	2549.00
353.70	2545.00
354.48	2542.00
355.27	2542.00
356.06	2557.00
356.84	2548.00
357.63	2553.00
358.42	2546.00
359.20	2557.00
359.99	2553.00
360.77	2547.00
361.56	2544.00
362.35	2546.00
363.13	2551.00
363.92	2557.00
364.70	2548.00
365.49	2551.00
366.28	2555.00
367.06	2555.00
367.85	2563.00
368.63	2553.00
369.42	2559.00
370.20	2562.00
370.99	2560.00
371.77	2558.00
372.56	2559.00
373.35	2566.00
374.13	2567.00
374.92	2565.00
375.70	2571.00
376.49	2577.00
377.27	2576.00
378.06	2579.00
378.84	2586.00
379.62	2584.00
380.41	2592.00
381.19	2598.00
381.98	2606.00
382.76	2602.00
383.55	2601.00
384.33	2610.00
385.12	2624.00
385.90	2634.00
386.68	2633.00
387.47	2638.00
388.25	2651.00
389.04	2659.00
389.82	2673.00
390.60	2681.00
391.39	2681.00
392.17	2696.00
392.95	2704.00
393.74	2730.00
394.52	2731.00
395.30	2757.00
396.09	2767.00
396.87	2792.00
397.65	2803.00
398.44	2827.00
399.22	2848.00
400.00	2888.00
400.79	2927.00
401.57	2965.00
402.35	3017.00
403.13	3066.00
403.92	3140.00
404.70	3221.00
405.48	3299.00
406.26	3411.00
407.05	3520.00
407.83	3644.00
408.61	3794.00
409.39	3973.00
410.18	4163.00
410.96	4397.00
411.74	4624.00
412.52	4916.00
413.30	5194.00
414.08	5542.00
414.87	5913.00
415.65	6322.00
416.43	6755.00
417.21	7235.00
417.99	7754.00
418.77	8313.00
419.56	8868.00
420.34	9549.00
421.12	10188.00
421.90	10951.00
422.68	11699.00
423.46	12487.00
424.24	13331.00
425.02	14192.00
425.80	15096.00
426.58	16015.00
427.36	16938.00
428.14	17861.00
428.93	18873.00
429.71	19846.00
430.49	20854.00
431.27	21891.00
432.05	22827.00
432.83	23822.00
433.61	24774.00
434.39	25669.00
435.17	26605.00
435.95	27479.00
436.73	28308.00
437.51	29127.00
438.29	29932.00
439.07	30706.00
439.85	31496.00
440.62	32174.00
441.40	32908.00
442.18	33650.00
442.96	34361.00
443.74	35115.00
444.52	35739.00
445.30	36364.00
446.08	36863.00
446.86	37352.00
447.64	37682.00
448.42	38034.00
449.19	38069.00
449.97	38048.00
450.75	37925.00
451.53	37421.00
452.31	36964.00
453.09	36324.00
453.87	35481.00
454.64	34549.00
455.42	33556.00
456.20	32376.00
456.98	31225.00
457.76	30030.00
458.53	28867.00
459.31	27718.00
460.09	26607.00
460.87	25537.00
461.65	24537.00
462.42	23565.00
463.20	22654.00
463.98	21766.00
464.76	21107.00
465.53	20375.00
466.31	19715.00
467.09	19050.00
467.86	18493.00
468.64	17946.00
469.42	17409.00
470.20	16928.00
470.97	16451.00
471.75	16007.00
472.53	15519.00
473.30	15194.00
474.08	14758.00
474.86	14392.00
475.63	14025.00
476.41	13744.00
477.18	13427.00
477.96	13176.00
478.74	12959.00
479.51	12769.00
480.29	12560.00
481.07	12460.00
481.84	12318.00
482.62	12250.00
483.39	12216.00
484.17	12238.00
484.94	12188.00
485.72	12241.00
486.50	12272.00
487.27	12351.00
488.05	12388.00
488.82	12550.00
489.60	12707.00
490.37	12882.00
491.15	13040.00
491.92	13283.00
492.70	13519.00
493.47	13806.00
494.25	14072.00
495.02	14473.00
495.80	14783.00
496.57	15129.00
497.35	15502.00
498.12	15934.00
498.89	16396.00
499.67	16875.00
500.44	17360.00
501.22	17873.00
501.99	18371.00
502.77	18904.00
503.54	19528.00
504.31	20073.00
505.09	20622.00
505.86	21194.00
506.63	21901.00
507.41	22507.00
508.18	23099.00
508.96	23694.00
509.73	24364.00
510.50	24940.00
511.28	25551.00
512.05	26230.00
512.82	26781.00
513.59	27383.00
514.37	27967.00
515.14	28549.00
515.91	29215.00
516.69	29685.00
517.46	30209.00
518.23	30785.00
519.00	31339.00
519.78	31938.00
520.55	32373.00
521.32	32957.00
522.09	33482.00
522.87	33901.00
523.64	34504.00
524.41	34962.00
525.18	35454.00
525.95	35912.00
526.73	36381.00
527.50	36745.00
528.27	37178.00
529.04	37569.00
529.81	37992.00
530.59	38333.00
531.36	38651.00
532.13	39070.00
532.90	39429.00
533.67	39724.00
534.44	40076.00
535.21	40328.00
535.98	40699.00
536.76	40946.00
537.53	41176.00
538.30	41435.00
539.07	41657.00
539.84	41941.00
540.61	42131.00
541.38	42405.00
542.15	42658.00
542.92	42819.00
543.69	43042.00
544.46	43194.00
545.23	43355.00
546.00	43440.00
546.77	43608.00
547.54	43761.00
548.31	43862.00
549.08	44038.00
549.85	44176.00
550.62	44227.00
551.39	44376.00
552.16	44462.00
552.93	44451.00
553.70	44614.00
554.47	44809.00
555.24	44714.00
556.01	44849.00
556.78	44856.00
557.55	44901.00
558.32	44894.00
559.09	45035.00
559.85	44990.00
560.62	44896.00
561.39	44947.00
562.16	45040.00
562.93	44950.00
563.70	45046.00
564.47	44970.00
565.23	44945.00
566.00	44912.00
566.77	44960.00
567.54	44932.00
568.31	44869.00
569.08	44771.00
569.84	44737.00
570.61	44701.00
571.38	44534.00
572.15	44526.00
572.92	44467.00
573.68	44298.00
574.45	44165.00
575.22	44144.00
575.99	44004.00
576.75	43877.00
577.52	43771.00
578.29	43712.00
579.05	43615.00
579.82	43418.00
580.59	43229.00
581.36	43089.00
582.12	42937.00
582.89	42759.00
583.66	42479.00
584.42	42412.00
585.19	42143.00
585.96	41970.00
586.72	41778.00
587.49	41603.00
588.26	41332.00
589.02	41047.00
589.79	40820.00
590.55	40583.00
591.32	40274.00
592.09	40156.00
592.85	39857.00
593.62	39526.00
594.38	39203.00
595.15	38962.00
595.91	38720.00
596.68	38457.00
597.45	38260.00
598.21	37984.00
598.98	37708.00
599.74	37462.00
600.51	37149.00
601.27	36897.00
602.04	36596.00
602.80	36326.00
603.57	35975.00
604.33	35673.00
605.10	35423.00
605.86	35092.00
606.63	34851.00
607.39	34622.00
608.15	34293.00
608.92	34027.00
609.68	33689.00
610.45	33484.00
611.21	33179.00
611.98	32874.00
612.74	32668.00
613.50	32275.00
614.27	32025.00
615.03	31787.00
615.80	31388.00
616.56	31139.00
617.32	30843.00
618.09	30533.00
618.85	30300.00
619.61	29956.00
620.38	29608.00
621.14	29373.00
621.90	29055.00
622.67	28684.00
623.43	28419.00
624.19	28052.00
624.96	27811.00
625.72	27504.00
626.48	27176.00
627.24	26861.00
628.01	26572.00
628.77	26246.00
629.53	25901.00
630.29	25645.00
631.06	25313.00
631.82	25048.00
632.58	24743.00
633.34	24472.00
634.10	24245.00
634.87	23956.00
635.63	23653.00
636.39	23373.00
637.15	23104.00
637.91	22840.00
638.68	22507.00
639.44	22218.00
640.20	21978.00
640.96	21721.00
641.72	21433.00
642.48	21130.00
643.24	20838.00
644.00	20592.00
644.77	20368.00
645.53	20066.00
646.29	19812.00
647.05	19568.00
647.81	19298.00
648.57	19035.00
649.33	18788.00
650.09	18538.00
650.85	18305.00
651.61	18062.00
652.37	17761.00
653.13	17524.00
653.89	17293.00
654.65	17074.00
655.41	16823.00
656.17	16549.00
656.93	16281.00
657.69	16064.00
658.45	15814.00
659.21	15614.00
659.97	15358.00
660.73	15080.00
661.49	14840.00
662.25	14591.00
663.01	14339.00
663.77	14108.00
664.53	13875.00
665.29	13681.00
666.05	13405.00
666.80	13188.00
667.56	12922.00
668.32	12723.00
669.08	12532.00
669.84	12266.00
670.60	12077.00
671.36	11873.00
672.11	11687.00
672.87	11519.00
673.63	11343.00
674.39	11144.00
675.15	10988.00
675.91	10862.00
676.66	10720.00
677.42	10561.00
678.18	10447.00
678.94	10327.00
679.69	10217.00
680.45	10095.00
681.21	10007.00
681.97	9927.00
682.73	9778.00
683.48	9706.00
684.24	9599.00
685.00	9494.00
685.75	9409.00
686.51	9325.00
687.27	9233.00
688.02	9108.00
688.78	9041.00
689.54	8938.00
690.30	8870.00
691.05	8773.00
691.81	8697.00
692.56	8593.00
693.32	8511.00
694.08	8395.00
694.83	8276.00
695.59	8220.00
696.35	8129.00
697.10	7999.00
697.86	7947.00
698.61	7835.00
699.37	7751.00
700.13	7650.00
700.88	7555.00
701.64	7445.00
702.39	7376.00
703.15	7288.00
703.90	7191.00
704.66	7139.00
705.41	6997.00
706.17	6925.00
706.92	6859.00
707.68	6761.00
708.43	6683.00
709.19	6587.00
709.94	6534.00
710.70	6476.00
711.45	6385.00
712.21	6304.00
712.96	6236.00
713.72	6158.00
714.47	6075.00
715.22	6003.00
715.98	5934.00
716.73	5887.00
717.49	5771.00
718.24	5704.00
718.99	5644.00
719.75	5583.00
720.50	5516.00
721.26	5443.00
722.01	5376.00
722.76	5328.00
723.52	5285.00
724.27	5214.00
725.02	5170.00
725.78	5114.00
726.53	5042.00
727.28	4998.00
728.03	4979.00
728.79	4923.00
729.54	4895.00
730.29	4844.00
731.05	4788.00
731.80	4735.00
732.55	4701.00
733.30	4678.00
734.06	4608.00
734.81	4585.00
735.56	4558.00
736.31	4486.00
737.06	4474.00
737.82	4425.00
738.57	4399.00
739.32	4364.00
740.07	4330.00
740.82	4299.00
741.58	4264.00
742.33	4224.00
743.08	4184.00
743.83	4183.00
744.58	4126.00
745.33	4101.00
746.08	4071.00
746.84	4048.00
747.59	4024.00
748.34	3981.00
749.09	3952.00
749.84	3927.00
750.59	3912.00
751.34	3869.00
752.09	3863.00
752.84	3813.00
753.59	3778.00
754.34	3776.00
755.09	3747.00
755.84	3717.00
756.59	3697.00
757.34	3683.00
758.09	3655.00
758.84	3648.00
759.59	3620.00
760.34	3594.00
761.09	3577.00
761.84	3554.00
762.59	3527.00
763.34	3518.00
764.09	3493.00
764.84	3476.00
765.59	3454.00
766.34	3437.00
767.09	3437.00
767.84	3411.00
768.58	3392.00
769.33	3385.00
770.08	3349.00
770.83	3342.00
771.58	3323.00
772.33	3309.00
773.08	3301.00
773.83	3277.00
774.57	3258.00
775.32	3258.00
776.07	3232.00
776.82	3224.00
777.57	3193.00
778.31	3202.00
779.06	3177.00
779.81	3168.00
780.56	3151.00
781.31	3132.00
782.05	3125.00
782.80	3108.00
783.55	3092.00
784.30	3079.00
785.04	3070.00
785.79	3060.00
786.54	3058.00
787.28	3060.00
788.03	3034.00
788.78	3031.00
789.52	3008.00
790.27	2993.00
791.02	2989.00
791.76	2986.00
792.51	2972.00
793.26	2953.00
794.00	2946.00
794.75	2950.00
795.50	2936.00
796.24	2937.00
796.99	2920.00
797.73	2915.00
798.48	2914.00
799.23	2910.00
799.97	2894.00
800.72	2880.00
801.46	2871.00
802.21	2864.00
802.95	2856.00
803.70	2850.00
804.45	2853.00
805.19	2848.00
805.94	2834.00
806.68	2827.00
807.43	2826.00
808.17	2817.00
808.92	2814.00
809.66	2805.00
810.40	2800.00
811.15	2798.00
811.89	2782.00
812.64	2789.00
813.38	2771.00
814.13	2778.00
814.87	2772.00
815.62	2768.00
816.36	2760.00
817.10	2760.00
817.85	2750.00
818.59	2746.00
819.34	2739.00
820.08	2731.00
820.82	2726.00
821.57	2725.00
822.31	2724.00
823.05	2722.00
823.80	2714.00
824.54	2713.00
825.28	2710.00
826.03	2706.00
826.77	2706.00
827.51	2687.00
828.25	2694.00
829.00	2690.00
829.74	2687.00
830.48	2681.00
831.23	2680.00
831.97	2672.00
832.71	2673.00
833.45	2667.00
834.19	2670.00
834.94	2670.00
835.68	2661.00
836.42	2663.00
837.16	2658.00
837.90	2658.00
838.65	2654.00
839.39	2651.00
840.13	2643.00
840.87	2645.00
841.61	2641.00
842.35	2646.00
843.10	2640.00
843.84	2632.00
844.58	2636.00
845.32	2638.00
846.06	2624.00
846.80	2632.00
847.54	2624.00
848.28	2628.00
849.02	2622.00
849.76	2619.00
850.50	2615.00
851.24	2612.00
851.99	2610.00
852.73	2619.00
853.47	2613.00
854.21	2610.00
854.95	2605.00
855.69	2614.00
856.43	2602.00
857.17	2605.00
857.91	2597.00
858.64	2596.00
859.38	2585.00
860.12	2599.00
860.86	2601.00
861.60	2587.00
862.34	2585.00
863.08	2583.00
863.82	2587.00
864.56	2588.00
865.30	2591.00
866.04	2594.00
866.78	2586.00
867.52	2581.00
868.25	2580.00
868.99	2575.00
869.73	2583.00
870.47	2572.00
871.21	2579.00
871.95	2579.00
872.68	2587.00
873.42	2574.00
874.16	2572.00
874.90	2573.00
875.64	2571.00
876.37	2572.00
877.11	2570.00
877.85	2568.00
878.59	2567.00
879.32	2567.00
880.06	2561.00
880.80	2567.00
881.54	2567.00
882.27	2565.00
883.01	2560.00
883.75	2570.00
884.48	2563.00
885.22	2564.00
885.96	2561.00
886.70	2556.00
887.43	2558.00
888.17	2565.00
888.90	2557.00
889.64	2558.00
890.38	2559.00
891.11	2568.00
891.85	2565.00
892.59	2561.00
893.32	2559.00
894.06	2555.00
894.79	2549.00
895.53	2557.00
896.27	2558.00
897.00	2557.00
897.74	2558.00
898.47	2557.00
899.21	2561.00
899.94	2558.00
900.68	2554.00
901.41	2554.00
902.15	2561.00
902.88	2551.00
903.62	2548.00
904.35	2547.00
905.09	2571.00
905.82	2558.00
906.56	2555.00
907.29	2555.00
908.03	2538.00
908.76	2542.00
909.49	2544.00
910.23	2542.00
910.96	2541.00
911.70	2553.00
912.43	2543.00
913.16	2546.00
913.90	2543.00
914.63	2553.00
915.37	2539.00
916.10	2544.00
916.83	2543.00
917.57	2543.00
918.30	2539.00
919.03	2539.00
919.77	2547.00
920.50	2551.00
921.23	2543.00
921.97	2542.00
922.70	2549.00
923.43	2548.00
924.16	2542.00
924.90	2537.00
925.63	2540.00
926.36	2540.00
927.09	2550.00
927.83	2541.00
928.56	2546.00
929.29	2545.00
930.02	2555.00
930.75	2547.00
931.49	2549.00
932.22	2545.00
932.95	2547.00
933.68	2538.00
934.41	2540.00
935.14	2540.00
935.88	2545.00
936.61	2545.00
937.34	2541.00
938.07	2547.00
938.80	2540.00
939.53	2541.00
940.26	2540.00
940.99	2549.00
941.72	2547.00
942.46	2537.00
943.19	2544.00
943.92	2540.00
944.65	2532.00
945.38	2543.00
946.11	2534.00
946.84	2542.00
947.57	2544.00
948.30	2539.00
949.03	2537.00
949.76	2537.00
950.49	2545.00
951.22	2547.00
951.95	2542.00
952.68	2534.00
953.41	2540.00
954.14	2544.00
954.86	2530.00
955.59	2537.00
956.32	2542.00
957.05	2539.00
957.78	2538.00
958.51	2542.00
959.24	2538.00
959.97	2536.00
960.70	2538.00
961.43	2537.00
962.15	2534.00
962.88	2535.00
963.61	2536.00
964.34	2539.00
965.07	2536.00
965.80	2534.00
966.52	2536.00
967.25	2533.00
967.98	2536.00
968.71	2528.00
969.43	2531.00
970.16	2535.00
970.89	2531.00
971.62	2531.00
972.34	2525.00
973.07	2526.00
973.80	2529.00
974.53	2529.00
975.25	2535.00
975.98	2532.00
976.71	2530.00
977.43	2531.00
978.16	2531.00
978.89	2523.00
979.61	2524.00
980.34	2526.00
981.07	2532.00
981.79	2532.00
982.52	2531.00
983.25	2533.00
983.97	2528.00
984.70	2526.00
985.42	2529.00
986.15	2525.00
986.88	2526.00
987.60	2527.00
988.33	2526.00
989.05	2530.00
989.78	2530.00
990.50	2529.00
991.23	2529.00
991.95	2532.00
992.68	2531.00
993.40	2533.00
994.13	2532.00
994.85	2527.00
995.58	2528.00
996.30	2524.00
997.03	2529.00
997.75	2529.00
998.48	2528.00
999.20	2536.00
999.93	2525.00
1000.65	2530.00
1001.38	2521.00
1002.10	2527.00
1002.82	2521.00
1003.55	2531.00
1004.27	2522.00
1004.99	2528.00
1005.72	2525.00
1006.44	2530.00
1007.17	2525.00
1007.89	2522.00
1008.61	2528.00
1009.34	2530.00
1010.06	2527.00
1010.78	2526.00
1011.51	2523.00
1012.23	2529.00
1012.95	2528.00
1013.67	2527.00
1014.40	2528.00
1015.12	2528.00
1015.84	2531.00
1016.56	2530.00
1017.29	2531.00
1018.01	2533.00
1018.73	2532.00
1019.45	2527.00
1020.18	2525.00
1020.90	2537.00
1021.62	2526.00
1022.34	2524.00
1023.06	2533.00
1023.78	2544.00
1024.51	2525.00
1025.23	2531.00
1025.95	2531.00
1026.67	2535.00
1027.39	2530.00
1028.11	2534.00
1028.83	2529.00
1029.55	2531.00
1030.28	2533.00
1031.00	2526.00
1031.72	2530.00
1032.44	2533.00
1033.16	2530.00
1033.88	2536.00
1034.60	2535.00
1035.32	2531.00
1036.04	2536.00
1036.76	2529.00
1037.48	2530.00
1038.20	2529.00
1038.92	2526.00
1039.64	2526.00
1040.36	2524.00
1041.08	2534.00
1041.80	2534.00
1042.52	2530.00
1043.24	2533.00
1043.96	2532.00
1044.68	2536.00
1045.40	2535.00
1046.11	2539.00
1046.83	2527.00
1047.55	2536.00
1048.27	2534.00
1048.99	2534.00
1049.71	2535.00
1050.43	2535.00
1051.15	2526.00
1051.86	2545.00
1052.58	2531.00
1053.30	2537.00
1054.02	2537.00
1054.74	2539.00
1055.45	2548.00
1056.17	2537.00
1056.89	2528.00
1057.61	2534.00
1058.33	2539.00
1059.04	2539.00
1059.76	2535.00
1060.48	2532.00
1061.20	2532.00
1061.91	2534.00
1062.63	2533.00
1063.35	2532.00
1064.06	2535.00
1064.78	2535.00
1065.50	2538.00
1066.22	2537.00
1066.93	2538.00
1067.65	2536.00
1068.36	2535.00
1069.08	2537.00
1069.80	2539.00
1070.51	2540.00
1071.23	2541.00
1071.95	2549.00
1072.66	2538.00
1073.38	2542.00
1074.09	2540.00
1074.81	2535.00
1075.53	2544.00
1076.24	2543.00
1076.96	2550.00
1077.67	2549.00
1078.39	2550.00
1079.10	2547.00
1079.82	2555.00
1080.53	2550.00
1081.25	2555.00
1081.96	2555.00
1082.68	2550.00
1083.39	2549.00
1084.11	2553.00
1084.82	2554.00
1085.54	2558.00
1086.25	2554.00
1086.97	2557.00
1087.68	2563.00
1088.39	2563.00
1089.11	2569.00
1089.82	2556.00
1090.54	2568.00
1091.25	2563.00
1091.96	2562.00
1092.68	2569.00
1093.39	2567.00
1094.10	2562.00
1094.82	2564.00
1095.53	2566.00
1096.24	2568.00
1096.96	2562.00
1097.67	2569.00
1098.38	2565.00
1099.10	2564.00
1099.81	2569.00
1100.52	2566.00
1101.23	2566.00
1101.95	2573.00
1102.66	2566.00
1103.37	2562.00
1104.08	2564.00
1104.80	2564.00
1105.51	2569.00
1106.22	2576.00
1106.93	2565.00
1107.64	2558.00
1108.36	2573.00
1109.07	2566.00
1109.78	2562.00
1110.49	2560.00
1111.20	2564.00
1111.91	2566.00
1112.63	2569.00
1113.34	2560.00
1114.05	2558.00
1114.76	2565.00
1115.47	2564.00
1116.18	2569.00
1116.89	2486.00
1117.60	2478.00
1118.31	2477.00
1119.02	2480.00
1119.73	2548.00
1120.44	2546.00
1121.16	2544.00
1121.87	2538.00
1122.58	2541.00
1123.29	2541.00
1124.00	2558.00
1124.71	2555.00
1125.42	2573.00
1126.12	2577.00
1126.83	2561.00
1127.54	2563.00
1128.25	2485.00
1128.96	2479.00
1129.67	2489.00
1130.38	2499.00
